"Time (s)","Acceleration x (m/s^2)","Acceleration y (m/s^2)","Acceleration z (m/s^2)","Absolute acceleration (m/s^2)"
2.364770900E-2,2.262114763E0,9.636943817E0,-8.304589987E-1,9.933655495E0
2.625880300E-2,2.260918379E0,9.646814346E0,-8.519943953E-1,9.944781214E0
2.886974000E-2,2.250599146E0,9.657880783E0,-8.706883192E-1,9.954795622E0
3.148073000E-2,2.236840487E0,9.662965775E0,-8.869894147E-1,9.958067741E0
3.409171900E-2,2.220090866E0,9.665059090E0,-9.034401178E-1,9.957829819E0
3.670270900E-2,2.193620205E0,9.659974098E0,-9.154042006E-1,9.948117110E0
3.931375100E-2,2.156381845E0,9.646215439E0,-9.327521920E-1,9.928216436E0
4.192494800E-2,2.120489597E0,9.630811691E0,-9.463613629E-1,9.906796142E0
4.453614600E-2,2.084447622E0,9.615109444E0,-9.581758976E-1,9.885006452E0
4.714744800E-2,2.048256159E0,9.598958015E0,-9.684949517E-1,9.862724306E0
4.975875100E-2,2.011915207E0,9.582656860E0,-9.821041226E-1,9.840713582E0
5.237015700E-2,1.977817416E0,9.568598747E0,-9.939187169E-1,9.821289026E0
5.498156300E-2,1.940878272E0,9.551549911E0,-1.006481051E0,9.798577360E0
5.759296900E-2,1.906481385E0,9.532108307E0,-1.026670456E0,9.774958428E0
6.020448000E-2,1.880309939E0,9.521490097E0,-1.035793066E0,9.760492119E0
6.281599000E-2,1.852792501E0,9.512217522E0,-1.041326523E0,9.746767831E0
6.542750100E-2,1.828714728E0,9.504141808E0,-1.041176915E0,9.734318591E0
6.803901100E-2,1.802991867E0,9.499805450E0,-1.036092162E0,9.724740112E0
7.065052100E-2,1.780708671E0,9.493523598E0,-1.029212832E0,9.713763057E0
7.326203200E-2,1.761267066E0,9.488289833E0,-1.018146038E0,9.703933583E0
7.587354200E-2,1.739731669E0,9.479166985E0,-1.013061285E0,9.690591632E0
7.848505300E-2,1.727169275E0,9.482307434E0,-9.951151013E-1,9.689557371E0
8.109656300E-2,1.721187234E0,9.485149384E0,-9.768698215E-1,9.689417886E0
8.370807300E-2,1.718345761E0,9.492477417E0,-9.584749937E-1,9.694251595E0
8.631958400E-2,1.720888138E0,9.499056816E0,-9.421738982E-1,9.699547826E0
8.893109400E-2,1.723131418E0,9.507431984E0,-9.230313301E-1,9.706308858E0
9.154260500E-2,1.722832322E0,9.517152786E0,-9.110672474E-1,9.714648316E0
9.415411500E-2,1.720589042E0,9.518797874E0,-9.097212553E-1,9.715736328E0
9.676562600E-2,1.724776506E0,9.528967857E0,-9.022436738E-1,9.725745528E0
9.937713600E-2,1.731057644E0,9.537940979E0,-9.028418660E-1,9.735707582E0
1.019886460E-1,1.736590981E0,9.548259735E0,-9.080761671E-1,9.747287547E0
1.046001570E-1,1.739133358E0,9.564560890E0,-9.148060083E-1,9.764337146E0
1.072116670E-1,1.741526246E0,9.583852768E0,-9.254241586E-1,9.784659290E0
1.098231780E-1,1.746162295E0,9.608079910E0,-9.346963167E-1,9.810093757E0
1.124315110E-1,1.748106480E0,9.627073288E0,-9.495019317E-1,9.830461346E0
1.150143760E-1,1.758425593E0,9.645169258E0,-9.587741494E-1,9.850918660E0
1.175747400E-1,1.767697692E0,9.658778191E0,-9.713364244E-1,9.867129558E0
1.201350530E-1,1.775773525E0,9.673134804E0,-9.847960472E-1,9.883963365E0
1.226954170E-1,1.787887216E0,9.685847282E0,-9.939187169E-1,9.899497598E0
1.252558340E-1,1.798505306E0,9.692427635E0,-9.994521141E-1,9.908414572E0
1.278162510E-1,1.810469389E0,9.695866585E0,-1.001844883E0,9.914197971E0
1.303766670E-1,1.816301942E0,9.687043190E0,-1.010668516E0,9.907532960E0
1.329373960E-1,1.827667832E0,9.680912018E0,-1.012163997E0,9.903782265E0
1.354979170E-1,1.842622995E0,9.668498993E0,-1.015753269E0,9.894790901E0
1.380581260E-1,1.855783463E0,9.652945518E0,-1.018893838E0,9.882379981E0
1.406186460E-1,1.867448568E0,9.634700775E0,-1.023828983E0,9.867271607E0
1.431790630E-1,1.875374794E0,9.616455078E0,-1.028016448E0,9.851398718E0
1.457393230E-1,1.882403612E0,9.595816612E0,-1.031456113E0,9.832956907E0
1.482997400E-1,1.879263043E0,9.575777054E0,-1.041476011E0,9.813857960E0
1.508602610E-1,1.885245085E0,9.569196701E0,-1.041476011E0,9.808585363E0
1.534205730E-1,1.890479445E0,9.568299294E0,-1.046261668E0,9.809226645E0
1.559809900E-1,1.897657871E0,9.572486877E0,-1.050299644E0,9.815128107E0
1.585415110E-1,1.908874273E0,9.583404541E0,-1.056132078E0,9.828573577E0
1.611021360E-1,1.921137452E0,9.597910881E0,-1.065852880E0,9.846151774E0
1.636629170E-1,1.939233184E0,9.620343208E0,-1.076620579E0,9.872727114E0
1.662240110E-1,1.952991962E0,9.642626762E0,-1.095314622E0,9.899199089E0
1.687850530E-1,1.971237183E0,9.675527573E0,-1.107727289E0,9.936230150E0
1.713458860E-1,1.992174387E0,9.711719513E0,-1.116251707E0,9.976586218E0
1.739068760E-1,2.012962103E0,9.750602722E0,-1.130608678E0,1.002020688E1
1.764676050E-1,2.031207323E0,9.787093163E0,-1.147956610E0,1.006135180E1
1.790281260E-1,2.052294016E0,9.821640015E0,-1.160519004E0,1.010065976E1
1.815887510E-1,2.075474501E0,9.856783867E0,-1.171436191E0,1.014081088E1
1.841494800E-1,2.091326952E0,9.885498047E0,-1.187886834E0,1.017387808E1
1.867102090E-1,2.113909245E0,9.919147491E0,-1.193569899E0,1.021189054E1
1.892710940E-1,2.136042833E0,9.951150894E0,-1.203290701E0,1.024870683E1
1.918320320E-1,2.153241158E0,9.974481583E0,-1.213908792E0,1.027620090E1
1.943930730E-1,2.170738697E0,9.992726326E0,-1.223181009E0,1.029868233E1
1.969540630E-1,2.186292171E0,1.000394249E1,-1.236042500E0,1.031438509E1
1.995148960E-1,2.202294111E0,1.001142025E1,-1.254287720E0,1.032723934E1
2.020758860E-1,2.211865425E0,9.999156952E0,-1.272233844E0,1.031959628E1
2.046368230E-1,2.226521492E0,9.990034103E0,-1.279412389E0,1.031479885E1
2.071972920E-1,2.237139702E0,9.979565620E0,-1.283151150E0,1.030742455E1
2.097575010E-1,2.244019032E0,9.963563919E0,-1.283898950E0,1.029352340E1
2.123178650E-1,2.252692938E0,9.942327499E0,-1.281954765E0,1.027462455E1
2.148784900E-1,2.257927179E0,9.919147491E0,-1.277916789E0,1.025284319E1
2.174391150E-1,2.262563467E0,9.896564484E0,-1.274028540E0,1.023153609E1
2.199996360E-1,2.257478714E0,9.862766266E0,-1.270439267E0,1.019727339E1
2.225602610E-1,2.261666059E0,9.834650993E0,-1.263559937E0,1.017015621E1
2.251207820E-1,2.265404940E0,9.807881355E0,-1.257278800E0,1.014432581E1
2.276814070E-1,2.263909340E0,9.786793709E0,-1.249202967E0,1.012260464E1
2.302421360E-1,2.260469675E0,9.773484230E0,-1.237388372E0,1.010751439E1
2.328028130E-1,2.260020971E0,9.764211655E0,-1.224377394E0,1.009686209E1
2.353631780E-1,2.254936218E0,9.756135941E0,-1.215404391E0,1.008682971E1
2.379233860E-1,2.243570328E0,9.744770050E0,-1.211964726E0,1.007288487E1
2.404838550E-1,2.235045910E0,9.738638878E0,-1.207478166E0,1.006451792E1
2.430441150E-1,2.227717876E0,9.730861664E0,-1.203440189E0,1.005488259E1
2.456041670E-1,2.219043970E0,9.729066849E0,-1.204487085E0,1.005135250E1
2.481639590E-1,2.209323168E0,9.720542908E0,-1.210170031E0,1.004164204E1
2.507237510E-1,2.198405743E0,9.715457916E0,-1.214955688E0,1.003490048E1
2.532839590E-1,2.186591148E0,9.711270332E0,-1.223928809E0,1.002935462E1
2.558446360E-1,2.162214279E0,9.700652122E0,-1.240977645E0,1.001587978E1
2.584054690E-1,2.144716740E0,9.692726135E0,-1.249651670E0,1.000551743E1
2.609660940E-1,2.127219439E0,9.683603287E0,-1.254736423E0,9.993577870E0
2.635265630E-1,2.109572172E0,9.675827026E0,-1.256531000E0,9.982524408E0
2.660871360E-1,2.094317913E0,9.666704178E0,-1.260568857E0,9.970976433E0
2.686477090E-1,2.078615189E0,9.658778191E0,-1.259073377E0,9.959814406E0
2.712080730E-1,2.065006018E0,9.649655342E0,-1.262363553E0,9.948550639E0
2.737684900E-1,2.046312094E0,9.632308006E0,-1.274626732E0,9.929422139E0
2.763288030E-1,2.033749580E0,9.628269196E0,-1.281506062E0,9.923807880E0
2.788890110E-1,2.022832394E0,9.617651939E0,-1.282552958E0,9.911408669E0
2.814490630E-1,2.013560295E0,9.608379364E0,-1.278664589E0,9.900018293E0
2.840089070E-1,2.007877350E0,9.600603104E0,-1.274925828E0,9.890833497E0
2.865687510E-1,2.005334854E0,9.593723297E0,-1.276570916E0,9.883851875E0
2.891290110E-1,2.000998020E0,9.587890625E0,-1.277767301E0,9.877465717E0
2.916895840E-1,1.990230203E0,9.575926781E0,-1.288086295E0,9.865016790E0
2.942500010E-1,1.989482522E0,9.571739197E0,-1.290778279E0,9.861153103E0
2.968102090E-1,1.991277099E0,9.563364029E0,-1.290778279E0,9.853386453E0
2.993703650E-1,1.995464563E0,9.551400185E0,-1.288086295E0,9.842270603E0
3.019306780E-1,1.999203324E0,9.543474197E0,-1.283300638E0,9.834712717E0
3.044912510E-1,2.002643108E0,9.536594391E0,-1.276570916E0,9.827860667E0
3.070518230E-1,2.010569334E0,9.530761719E0,-1.272981644E0,9.823354328E0
3.096121880E-1,2.010569334E0,9.523583412E0,-1.271934748E0,9.816254278E0
3.121722920E-1,2.019243240E0,9.518648148E0,-1.262363553E0,9.812011392E0
3.147326050E-1,2.029412746E0,9.512217522E0,-1.253839016E0,9.806778806E0
3.172934380E-1,2.038385868E0,9.511320114E0,-1.248604774E0,9.807101567E0
3.198542710E-1,2.043919086E0,9.510871887E0,-1.241575837E0,9.806926116E0
3.224146360E-1,2.048854351E0,9.512816429E0,-1.235294700E0,9.809048555E0
3.249746360E-1,2.053340912E0,9.517152786E0,-1.229761243E0,9.813496766E0
3.275346880E-1,2.055285215E0,9.518797874E0,-1.236491084E0,9.816344559E0
3.300948440E-1,2.063211441E0,9.531360626E0,-1.238435268E0,9.830432277E0
3.326550010E-1,2.072483540E0,9.542427063E0,-1.245015502E0,9.843940566E0
3.352152090E-1,2.083251238E0,9.552147865E0,-1.250399351E0,9.856315899E0
3.377754170E-1,2.090429783E0,9.563215256E0,-1.255185008E0,9.869167752E0
3.403354690E-1,2.096860409E0,9.573084831E0,-1.261615753E0,9.880913473E0
3.428957820E-1,2.100150585E0,9.581909180E0,-1.271785259E0,9.891463681E0
3.454563550E-1,2.100898266E0,9.582656860E0,-1.287637711E0,9.894397248E0
3.480167710E-1,2.107927084E0,9.589535713E0,-1.288086295E0,9.902611680E0
3.505771360E-1,2.114058733E0,9.590881348E0,-1.285992622E0,9.904949590E0
3.531372920E-1,2.117199421E0,9.594620705E0,-1.283898950E0,9.908969491E0
3.556972400E-1,2.122583151E0,9.598060608E0,-1.284497142E0,9.913529118E0
3.582570840E-1,2.127368927E0,9.601201057E0,-1.280010581E0,9.917015044E0
3.608169280E-1,2.133949041E0,9.604042053E0,-1.278365493E0,9.920966717E0
3.633769280E-1,2.130509377E0,9.606734276E0,-1.286142230E0,9.923838747E0
3.659368760E-1,2.131406784E0,9.613015175E0,-1.289133191E0,9.930499485E0
3.684966670E-1,2.132304192E0,9.621090889E0,-1.291675568E0,9.938839813E0
3.710565630E-1,2.130808592E0,9.628269196E0,-1.298554897E0,9.946364048E0
3.736165110E-1,2.129612207E0,9.632158279E0,-1.309173107E0,9.951264015E0
3.761766150E-1,2.126322031E0,9.633503914E0,-1.316052437E0,9.952770321E0
3.787368230E-1,2.125873327E0,9.637093544E0,-1.321884990E0,9.956921678E0
3.812968230E-1,2.118694782E0,9.633354187E0,-1.333849072E0,9.953367964E0
3.838567710E-1,2.123480558E0,9.638588905E0,-1.338036537E0,9.960015439E0
3.864168760E-1,2.130060911E0,9.643524170E0,-1.346411347E0,9.967323684E0
3.889772400E-1,2.138435602E0,9.647860527E0,-1.353589892E0,9.974283191E0
3.915378650E-1,2.143520355E0,9.654142380E0,-1.362263799E0,9.982630278E0
3.940985940E-1,2.148006916E0,9.662218094E0,-1.369591832E0,9.992405816E0
3.966591670E-1,2.152044773E0,9.667003632E0,-1.375872970E0,9.998764041E0
3.992196880E-1,2.153540373E0,9.661918640E0,-1.388285756E0,9.995886418E0
4.017803650E-1,2.161167383E0,9.661320686E0,-1.395314693E0,9.997933034E0
4.043408340E-1,2.165504456E0,9.658478737E0,-1.401296735E0,9.996962218E0
4.069011980E-1,2.167000055E0,9.656235695E0,-1.406381488E0,9.995833428E0
4.094616670E-1,2.166102648E0,9.654291153E0,-1.410718441E0,9.994371659E0
4.120220320E-1,2.165354967E0,9.652795792E0,-1.416850090E0,9.993632618E0
4.145825530E-1,2.164906263E0,9.651599884E0,-1.417298794E0,9.992443911E0
4.171429690E-1,2.159970999E0,9.643524170E0,-1.419691563E0,9.983914927E0
4.197034380E-1,2.157129526E0,9.642925262E0,-1.420439363E0,9.982828426E0
4.222640110E-1,2.157279253E0,9.642327309E0,-1.416102409E0,9.981666982E0
4.248244800E-1,2.155035973E0,9.642028809E0,-1.412214041E0,9.980343085E0
4.273847920E-1,2.153241158E0,9.644271851E0,-1.408624768E0,9.981615638E0
4.299452090E-1,2.156531334E0,9.651300430E0,-1.407876968E0,9.989011210E0
4.325057300E-1,2.164308071E0,9.662218094E0,-1.406979680E0,1.000111392E1
4.350660420E-1,2.164308071E0,9.664909363E0,-1.415504098E0,1.000491650E1
4.376261460E-1,2.170439720E0,9.673434258E0,-1.416700602E0,1.001464825E1
4.401862510E-1,2.180908203E0,9.681061745E0,-1.419990659E0,1.002475389E1
4.427462510E-1,2.185245275E0,9.690333366E0,-1.422832131E0,1.003505401E1
4.453060420E-1,2.191675901E0,9.696166039E0,-1.422682643E0,1.004206677E1
4.478659380E-1,2.199751854E0,9.706186295E0,-1.420140266E0,1.005314672E1
4.504258860E-1,2.204537392E0,9.710224152E0,-1.415354609E0,1.005741850E1
4.529854690E-1,2.206631184E0,9.702148438E0,-1.415653706E0,1.005012343E1
4.555447920E-1,2.214706898E0,9.706036568E0,-1.412064433E0,1.005514786E1
4.581040630E-1,2.217099667E0,9.707232475E0,-1.401595831E0,1.005536494E1
4.606634900E-1,2.219492435E0,9.710822105E0,-1.392323732E0,1.005807029E1
4.632229170E-1,2.221586227E0,9.714112282E0,-1.381705523E0,1.006024517E1
4.657822400E-1,2.223530531E0,9.716953278E0,-1.367498159E0,1.006147704E1
4.683415110E-1,2.225325108E0,9.715009689E0,-1.352542996E0,1.005797483E1
4.709009380E-1,2.222483635E0,9.708579063E0,-1.346261859E0,1.005029163E1
4.734606260E-1,2.219043970E0,9.709326744E0,-1.334596872E0,1.004869796E1
4.760200010E-1,2.216052771E0,9.707831383E0,-1.321884990E0,1.004491214E1
4.785793230E-1,2.211267233E0,9.706484795E0,-1.308126211E0,1.004075416E1
4.811386980E-1,2.209622145E0,9.707831383E0,-1.293619752E0,1.003981435E1
4.836983860E-1,2.205883265E0,9.706784248E0,-1.285693526E0,1.003696116E1
4.862580210E-1,2.202742815E0,9.706036568E0,-1.278515100E0,1.003463117E1
4.888172400E-1,2.193171501E0,9.698409081E0,-1.274327636E0,1.002462223E1
4.913763550E-1,2.188535452E0,9.695717812E0,-1.266849995E0,1.002005690E1
4.939356780E-1,2.182254314E0,9.693324089E0,-1.262662649E0,1.001584159E1
4.964950010E-1,2.174477577E0,9.689137459E0,-1.263559937E0,1.001021084E1
4.990542710E-1,2.165504456E0,9.687790871E0,-1.266550899E0,1.000733994E1
5.016135420E-1,2.157727718E0,9.684500694E0,-1.271486163E0,1.000310050E1
5.041727610E-1,2.150998116E0,9.681659698E0,-1.273430347E0,9.999147577E0
5.067319800E-1,2.138286114E0,9.669994354E0,-1.277019501E0,9.985581461E0
5.092913030E-1,2.133350849E0,9.661170959E0,-1.278814197E0,9.976210498E0
5.118506260E-1,2.129163504E0,9.651300430E0,-1.282552958E0,9.966236968E0
5.144102610E-1,2.123331070E0,9.645019531E0,-1.281057477E0,9.958717028E0
5.169700530E-1,2.118246317E0,9.639784813E0,-1.281954765E0,9.952679374E0
5.195298960E-1,2.113909245E0,9.635298729E0,-1.282552958E0,9.947488928E0
5.220894280E-1,2.110320091E0,9.631410599E0,-1.283001542E0,9.943018353E0
5.246487510E-1,2.097907305E0,9.623633385E0,-1.287787199E0,9.933475245E0
5.272083340E-1,2.095664024E0,9.620642662E0,-1.288235903E0,9.930162369E0
5.297680730E-1,2.098654985E0,9.615707397E0,-1.288534999E0,9.926051780E0
5.323277090E-1,2.101346970E0,9.613912582E0,-1.293320656E0,9.925505153E0
5.348875530E-1,2.103739738E0,9.614959717E0,-1.295115232E0,9.927260181E0
5.374473440E-1,2.103739738E0,9.615857124E0,-1.303639650E0,9.929244959E0
5.400068760E-1,2.101346970E0,9.619297028E0,-1.306182027E0,9.932403832E0
5.425661980E-1,2.092373848E0,9.613015175E0,-1.320239902E0,9.926284424E0
5.451253650E-1,2.090878248E0,9.613762856E0,-1.326072454E0,9.927470788E0
5.476846360E-1,2.089681864E0,9.616903305E0,-1.331157088E0,9.930940472E0
5.502438550E-1,2.088634968E0,9.617352486E0,-1.337886930E0,9.932059519E0
5.528031260E-1,2.085644007E0,9.625128746E0,-1.348505139E0,9.940396391E0
5.553625530E-1,2.085345030E0,9.632008553E0,-1.357478142E0,9.948215898E0
5.579217710E-1,2.085345030E0,9.635746956E0,-1.365404367E0,9.952919792E0
5.604810420E-1,2.080858469E0,9.629765511E0,-1.381406426E0,9.948398840E0
5.630405730E-1,2.083101749E0,9.630811691E0,-1.391725421E0,9.951318826E0
5.656001570E-1,2.085195303E0,9.631858826E0,-1.400549054E0,9.954008315E0
5.681594800E-1,2.089532375E0,9.635298729E0,-1.410568953E0,9.959660231E0
5.707183860E-1,2.093570232E0,9.635896683E0,-1.412064433E0,9.961298468E0
5.732771360E-1,2.097159386E0,9.636644363E0,-1.415504098E0,9.963264722E0
5.758365110E-1,2.102842331E0,9.637541771E0,-1.416102409E0,9.965415360E0
5.783964590E-1,2.103291035E0,9.628868103E0,-1.421187043E0,9.957846491E0
5.809565110E-1,2.109871387E0,9.625278473E0,-1.421635747E0,9.955832017E0
5.835164070E-1,2.113460541E0,9.624530792E0,-1.419542074E0,9.955571713E0
5.860761980E-1,2.119143486E0,9.626475334E0,-1.415205002E0,9.958042060E0
5.886359380E-1,2.126621008E0,9.628269196E0,-1.413709521E0,9.961157524E0
5.911956780E-1,2.133201361E0,9.630064011E0,-1.409821153E0,9.963748119E0
5.937554170E-1,2.139183521E0,9.631559372E0,-1.408774376E0,9.966327674E0
5.963150530E-1,2.142323971E0,9.626175880E0,-1.414606810E0,9.962626486E0
5.988744800E-1,2.151297092E0,9.627671242E0,-1.413560033E0,9.965855943E0
6.014341670E-1,2.156830549E0,9.626625061E0,-1.414905906E0,9.966232328E0
6.039940110E-1,2.161765814E0,9.625876427E0,-1.415952802E0,9.966727184E0
6.065537510E-1,2.164009094E0,9.623035431E0,-1.419093370E0,9.964917072E0
6.091133860E-1,2.163560390E0,9.620642662E0,-1.419392467E0,9.962551569E0
6.116727610E-1,2.168046951E0,9.620942116E0,-1.416999698E0,9.963475444E0
6.142320320E-1,2.169991016E0,9.614510536E0,-1.421934843E0,9.958392067E0
6.167911980E-1,2.177917242E0,9.614959717E0,-1.422383547E0,9.960619902E0
6.193503130E-1,2.180160522E0,9.613164902E0,-1.420140266E0,9.959058073E0
6.219094800E-1,2.179861546E0,9.611819267E0,-1.415803194E0,9.957076110E0
6.244690630E-1,2.177319050E0,9.610622406E0,-1.414158225E0,9.955130575E0
6.270289070E-1,2.175225258E0,9.607332230E0,-1.412662625E0,9.951283997E0
6.295891150E-1,2.171037912E0,9.609426498E0,-1.413560033E0,9.952519039E0
6.321492710E-1,2.160569191E0,9.604341507E0,-1.418943882E0,9.946096559E0
6.347088550E-1,2.157727718E0,9.606136322E0,-1.412513137E0,9.946297668E0
6.372682820E-1,2.155334949E0,9.610323906E0,-1.406830192E0,9.949018319E0
6.398276570E-1,2.150998116E0,9.606734276E0,-1.396810174E0,9.943199435E0
6.423870840E-1,2.147259235E0,9.603892326E0,-1.387986660E0,9.938409179E0
6.449465630E-1,2.141725779E0,9.603892326E0,-1.380210042E0,9.936131888E0
6.475060940E-1,2.139333010E0,9.606286049E0,-1.375573874E0,9.937287400E0
6.500655730E-1,2.132902384E0,9.601649284E0,-1.380808234E0,9.932148455E0
6.526255210E-1,2.135893345E0,9.606136322E0,-1.374377489E0,9.936237160E0
6.551858340E-1,2.136192322E0,9.610323906E0,-1.368694544E0,9.939565784E0
6.577463030E-1,2.131855488E0,9.616455078E0,-1.365853071E0,9.944172701E0
6.603073440E-1,2.128116608E0,9.624231339E0,-1.365703583E0,9.950872094E0
6.628686460E-1,2.124976158E0,9.631260872E0,-1.363161206E0,9.956651954E0
6.654295320E-1,2.122284174E0,9.635149002E0,-1.360618830E0,9.959491453E0
6.679903650E-1,2.115554333E0,9.636345863E0,-1.363011599E0,9.959544786E0
6.705514070E-1,2.118395805E0,9.646215439E0,-1.356431365E0,9.968800285E0
6.731121880E-1,2.118395805E0,9.654890060E0,-1.350449324E0,9.976382924E0
6.756727090E-1,2.121087790E0,9.660123825E0,-1.347607851E0,9.981635770E0
6.782330730E-1,2.121087790E0,9.660123825E0,-1.344915867E0,9.981272685E0
6.807936980E-1,2.123630047E0,9.665059090E0,-1.347308755E0,9.986912068E0
6.833542710E-1,2.118844509E0,9.667153358E0,-1.349252820E0,9.988184984E0
6.859145840E-1,2.107628107E0,9.662068367E0,-1.357777357E0,9.982044917E0
6.884747400E-1,2.104188442E0,9.663713455E0,-1.361366510E0,9.983400499E0
6.910352090E-1,2.098954201E0,9.665508270E0,-1.364507079E0,9.984464854E0
6.935961980E-1,2.096860409E0,9.669396400E0,-1.369442344E0,9.988464479E0
6.961571360E-1,2.097458601E0,9.670742035E0,-1.371236920E0,9.990138877E0
6.987177610E-1,2.100599289E0,9.671938896E0,-1.372732401E0,9.992162610E0
7.012782820E-1,2.101047754E0,9.673134804E0,-1.371386528E0,9.993229688E0
7.038389070E-1,2.094467640E0,9.664760590E0,-1.382004619E0,9.985205492E0
7.063993230E-1,2.095065832E0,9.661470413E0,-1.382602811E0,9.982229306E0
7.089595840E-1,2.100449562E0,9.665806770E0,-1.383051515E0,9.987619355E0
7.115200010E-1,2.100599289E0,9.665059090E0,-1.383201003E0,9.986947962E0
7.140803650E-1,2.103141546E0,9.661918640E0,-1.383350611E0,9.984464687E0
7.166407820E-1,2.105534315E0,9.664311409E0,-1.380808234E0,9.986932519E0
7.192011460E-1,2.110170364E0,9.664012909E0,-1.378564954E0,9.987312241E0
7.217615630E-1,2.109721899E0,9.656833649E0,-1.388285756E0,9.981618103E0
7.243221880E-1,2.115554333E0,9.656983376E0,-1.390529037E0,9.983309524E0
7.268825010E-1,2.123181343E0,9.657133102E0,-1.389930844E0,9.984990061E0
7.294429170E-1,2.130060911E0,9.659675598E0,-1.389332652E0,9.988830631E0
7.320032820E-1,2.138435602E0,9.659825325E0,-1.386192083E0,9.990328354E0
7.345634900E-1,2.143670082E0,9.659974098E0,-1.380957723E0,9.990869093E0
7.371238030E-1,2.150698900E0,9.660273552E0,-1.376321673E0,9.992029434E0
7.396842190E-1,2.147558212E0,9.648757935E0,-1.379163146E0,9.980612553E0
7.422446880E-1,2.151147604E0,9.645019531E0,-1.370489120E0,9.976576477E0
7.448053650E-1,2.154288054E0,9.641879082E0,-1.360469222E0,9.972846422E0
7.473659380E-1,2.154886246E0,9.636794090E0,-1.351496100E0,9.966838856E0
7.499259380E-1,2.157877445E0,9.634999275E0,-1.345962763E0,9.965001850E0
7.524855210E-1,2.160569191E0,9.635896683E0,-1.343420386E0,9.966109695E0
7.550451570E-1,2.160718918E0,9.636794090E0,-1.338634729E0,9.966365913E0
7.576050530E-1,2.156381845E0,9.628269196E0,-1.343719482E0,9.957867865E0
7.601650530E-1,2.156381845E0,9.627073288E0,-1.339532018E0,9.956147286E0
7.627253130E-1,2.156531334E0,9.626175880E0,-1.338186026E0,9.955130904E0
7.652855210E-1,2.156681061E0,9.630213737E0,-1.334447265E0,9.958566128E0
7.678455730E-1,2.157129526E0,9.636345863E0,-1.328614831E0,9.963813866E0
7.704060420E-1,2.157578230E0,9.644271851E0,-1.325773239E0,9.971198425E0
7.729669280E-1,2.155634165E0,9.651300430E0,-1.323230863E0,9.977239025E0
7.755278650E-1,2.149502516E0,9.652945518E0,-1.327867031E0,9.978123526E0
7.780889070E-1,2.143221378E0,9.658329964E0,-1.328016520E0,9.982001976E0
7.806497400E-1,2.135444641E0,9.660722733E0,-1.325773239E0,9.982352539E0
7.832101570E-1,2.128714800E0,9.667601585E0,-1.318744421E0,9.986642777E0
7.857704170E-1,2.123031855E0,9.673882484E0,-1.314856052E0,9.991001602E0
7.883307300E-1,2.113311052E0,9.674630165E0,-1.316202044E0,9.989841853E0
7.908912510E-1,2.107478619E0,9.675527573E0,-1.317248821E0,9.989616829E0
7.934519280E-1,2.097757816E0,9.671789169E0,-1.320239902E0,9.984344094E0
7.960123440E-1,2.090728760E0,9.674779892E0,-1.316501141E0,9.985273554E0
7.985726570E-1,2.087139606E0,9.679864883E0,-1.315603852E0,9.989331779E0
8.011331780E-1,2.083998919E0,9.681958199E0,-1.314706445E0,9.990586524E0
8.036936460E-1,2.083849430E0,9.684052467E0,-1.316202044E0,9.992781818E0
8.062540630E-1,2.083998919E0,9.685996056E0,-1.319791198E0,9.995169828E0
8.088147920E-1,2.083998919E0,9.683005333E0,-1.322782278E0,9.992667148E0
8.113756260E-1,2.077269077E0,9.673583984E0,-1.329811215E0,9.983069257E0
8.139361980E-1,2.077568293E0,9.669096947E0,-1.329811215E0,9.978783676E0
8.164967190E-1,2.078016996E0,9.665358543E0,-1.327119231E0,9.974896283E0
8.190571360E-1,2.078465462E0,9.664610863E0,-1.322483182E0,9.973649461E0
8.216173960E-1,2.076670885E0,9.664012909E0,-1.325324655E0,9.973073393E0
8.241777090E-1,2.079961061E0,9.658778191E0,-1.325324655E0,9.968686954E0
8.267379690E-1,2.085345030E0,9.654440880E0,-1.325175047E0,9.965589872E0
8.292982300E-1,2.083251238E0,9.643822670E0,-1.327119231E0,9.955124151E0
8.318585940E-1,2.089981079E0,9.640682220E0,-1.322632670E0,9.952895647E0
8.344188550E-1,2.096112728E0,9.640383720E0,-1.323380470E0,9.953995314E0
8.369793760E-1,2.101496458E0,9.640383720E0,-1.326221943E0,9.955508540E0
8.395401050E-1,2.106431723E0,9.640383720E0,-1.331157088E0,9.957210055E0
8.421008860E-1,2.115554333E0,9.643074989E0,-1.332802176E0,9.961969034E0
8.446616150E-1,2.121237278E0,9.643074989E0,-1.331755400E0,9.963037453E0
8.472221880E-1,2.117049932E0,9.633803368E0,-1.335344553E0,9.953653240E0
8.497826050E-1,2.121984959E0,9.631858826E0,-1.329811215E0,9.952081314E0
8.523430730E-1,2.124078751E0,9.630363464E0,-1.324726462E0,9.950402564E0
8.549037510E-1,2.126022816E0,9.629166603E0,-1.320389390E0,9.949082904E0
8.574642710E-1,2.130210400E0,9.623483658E0,-1.311565876E0,9.943311275E0
8.600246360E-1,2.133949041E0,9.620942116E0,-1.303639650E0,9.940610748E0
8.625849480E-1,2.137388945E0,9.616604805E0,-1.294217944E0,9.935920670E0
8.651452610E-1,2.135893345E0,9.603444099E0,-1.293021560E0,9.922705463E0
8.677057820E-1,2.143370867E0,9.600603104E0,-1.283151150E0,9.920287067E0
8.702663550E-1,2.152343988E0,9.600603104E0,-1.274477124E0,9.921111658E0
8.728267190E-1,2.157877445E0,9.600751877E0,-1.269093275E0,9.921767454E0
8.753869280E-1,2.160419703E0,9.605687141E0,-1.264307618E0,9.926485405E0
8.779469280E-1,2.165205479E0,9.610323906E0,-1.259970665E0,9.931463458E0
8.805070320E-1,2.171935320E0,9.614361763E0,-1.258475184E0,9.936650086E0
8.830673960E-1,2.168645144E0,9.611071587E0,-1.268794179E0,9.934060472E0
8.856279170E-1,2.171935320E0,9.614361763E0,-1.269093275E0,9.938000447E0
8.881881260E-1,2.177319050E0,9.615109444E0,-1.269392371E0,9.939939882E0
8.907482820E-1,2.179711819E0,9.615857124E0,-1.269392371E0,9.941187496E0
8.933088030E-1,2.181955099E0,9.618997574E0,-1.269392371E0,9.944717159E0
8.958693760E-1,2.181656122E0,9.621838570E0,-1.266849995E0,9.947075440E0
8.984298440E-1,2.176870346E0,9.624530792E0,-1.262064338E0,9.948023114E0
9.009903130E-1,2.165653944E0,9.617502213E0,-1.264756322E0,9.939115371E0
9.035506260E-1,2.159672022E0,9.620044708E0,-1.260867953E0,9.939780250E0
9.061106260E-1,2.154587269E0,9.620044708E0,-1.262064338E0,9.938828547E0
9.086707820E-1,2.148006916E0,9.620193481E0,-1.260718465E0,9.937377289E0
9.112310940E-1,2.144567251E0,9.620343208E0,-1.254586816E0,9.936003232E0
9.137915110E-1,2.144268274E0,9.615857124E0,-1.256231904E0,9.931803123E0
9.163523440E-1,2.143969059E0,9.609724998E0,-1.257577896E0,9.925971995E0
9.189131260E-1,2.134547234E0,9.599854469E0,-1.268046498E0,9.915716799E0
9.214739590E-1,2.132453680E0,9.599705696E0,-1.270887971E0,9.915486089E0
9.240351050E-1,2.133201361E0,9.602248192E0,-1.273280740E0,9.918415308E0
9.265961460E-1,2.133949041E0,9.604640961E0,-1.272832036E0,9.920835040E0
9.291568230E-1,2.134846449E0,9.606734276E0,-1.269990563E0,9.922690605E0
9.317177090E-1,2.137987137E0,9.611220360E0,-1.269691467E0,9.927671541E0
9.342787510E-1,2.138585329E0,9.617502213E0,-1.269392371E0,9.933843818E0
9.368394800E-1,2.132154465E0,9.613762856E0,-1.275972724E0,9.929684048E0
9.393998960E-1,2.132902384E0,9.614510536E0,-1.280160069E0,9.931107452E0
9.419604170E-1,2.133500576E0,9.615109444E0,-1.283898950E0,9.932298366E0
9.445208340E-1,2.136641026E0,9.620642662E0,-1.286889911E0,9.938716504E0
9.470811980E-1,2.141875267E0,9.625577927E0,-1.287039518E0,9.944639300E0
9.496418230E-1,2.146661043E0,9.630064011E0,-1.287039518E0,9.950012925E0
9.522025010E-1,2.155634165E0,9.629166603E0,-1.286889911E0,9.951064956E0
9.547633340E-1,2.156681061E0,9.621689796E0,-1.291376472E0,9.944638803E0
9.573243760E-1,2.163859367E0,9.621390343E0,-1.288834095E0,9.945578556E0
9.598853130E-1,2.172683001E0,9.618698120E0,-1.284198046E0,9.944298345E0
9.624461980E-1,2.180459738E0,9.614212036E0,-1.277617693E0,9.940814087E0
9.650071880E-1,2.192274094E0,9.610323906E0,-1.274178028E0,9.939211283E0
9.675680210E-1,2.200200319E0,9.607182503E0,-1.268644691E0,9.937217741E0
9.701286460E-1,2.207378864E0,9.602098465E0,-1.268345594E0,9.933857102E0
9.726893760E-1,2.206780672E0,9.593125343E0,-1.277468204E0,9.926220822E0
9.752505210E-1,2.210070848E0,9.591480255E0,-1.279113293E0,9.925574918E0
9.778118230E-1,2.213061810E0,9.590283394E0,-1.280608773E0,9.925277678E0
9.803728130E-1,2.215903282E0,9.586843491E0,-1.279262781E0,9.922414461E0
9.829336460E-1,2.216052771E0,9.584152222E0,-1.277916789E0,9.919674138E0
9.854940630E-1,2.218595266E0,9.586544991E0,-1.279113293E0,9.922708331E0
9.880543230E-1,2.221137524E0,9.591180801E0,-1.277617693E0,9.927563046E0
9.906145320E-1,2.213959217E0,9.590732574E0,-1.283151150E0,9.926240154E0
9.931745840E-1,2.213959217E0,9.596714020E0,-1.281655669E0,9.931826451E0
9.957345320E-1,2.211715937E0,9.601948738E0,-1.277916789E0,9.935903496E0
9.982946880E-1,2.209771633E0,9.604341507E0,-1.279412389E0,9.937975775E0
1.000855001E0,2.208276272E0,9.604191780E0,-1.278066397E0,9.937325473E0
1.003415469E0,2.209622145E0,9.604042053E0,-1.279113293E0,9.937614633E0
1.005975730E0,2.208276272E0,9.604191780E0,-1.280010581E0,9.937575707E0
1.008535678E0,2.200350046E0,9.597312927E0,-1.287637711E0,9.930154411E0
1.011095730E0,2.202144623E0,9.600004196E0,-1.285693526E0,9.932901356E0
1.013655834E0,2.203789711E0,9.602546692E0,-1.286291718E0,9.935800846E0
1.016215886E0,2.202892303E0,9.602396965E0,-1.279412389E0,9.934568840E0
1.018776042E0,2.204686880E0,9.602396965E0,-1.270887971E0,9.933872757E0
1.021336303E0,2.201546431E0,9.604939461E0,-1.261017561E0,9.934376378E0
1.023896407E0,2.198854446E0,9.607332230E0,-1.256979704E0,9.935582088E0
1.026456823E0,2.189731836E0,9.602546692E0,-1.260269761E0,9.929355888E0
1.029017448E0,2.185693979E0,9.604491234E0,-1.259372473E0,9.930233082E0
1.031578178E0,2.182104588E0,9.611220360E0,-1.258325577E0,9.935820071E0
1.034139063E0,2.176720858E0,9.614809990E0,-1.259821177E0,9.938301376E0
1.036699688E0,2.172234297E0,9.620492935E0,-1.261017561E0,9.942969951E0
1.039260261E0,2.168345928E0,9.623185158E0,-1.261765242E0,9.944821173E0
1.041820938E0,2.169991016E0,9.625727654E0,-1.267298698E0,9.948343574E0
1.044381459E0,2.162064791E0,9.620942116E0,-1.276421309E0,9.943153560E0
1.046941876E0,2.163709879E0,9.625428200E0,-1.280758262E0,9.948409430E0
1.049502240E0,2.167747736E0,9.627223015E0,-1.286740422E0,9.951796528E0
1.052062553E0,2.168944120E0,9.626325607E0,-1.291825175E0,9.951847847E0
1.054622969E0,2.170140505E0,9.628120422E0,-1.296012521E0,9.954389039E0
1.057183386E0,2.168944120E0,9.627521515E0,-1.297358513E0,9.953724340E0
1.059743907E0,2.170439720E0,9.627073288E0,-1.298405409E0,9.953753326E0
1.062304584E0,2.162513494E0,9.617352486E0,-1.301246881E0,9.942996374E0
1.064864948E0,2.164158583E0,9.612716675E0,-1.297657609E0,9.938401255E0
1.067425209E0,2.165653944E0,9.608827591E0,-1.294217944E0,9.934516836E0
1.069985626E0,2.164756775E0,9.603144646E0,-1.293619752E0,9.928746701E0
1.072546094E0,2.166551352E0,9.595966339E0,-1.290479183E0,9.921786697E0
1.075106719E0,2.168196440E0,9.594470978E0,-1.290180087E0,9.920660956E0
1.077667292E0,2.172084808E0,9.595816612E0,-1.294367552E0,9.923358113E0
1.080227657E0,2.168794632E0,9.592377663E0,-1.300199986E0,9.920075573E0
1.082788230E0,2.169692039E0,9.598060608E0,-1.301545978E0,9.925943427E0
1.085348751E0,2.170439720E0,9.600751877E0,-1.295264840E0,9.927887801E0
1.087909584E0,2.176122665E0,9.603294373E0,-1.292124271E0,9.931181088E0
1.090470469E0,2.176571369E0,9.605687141E0,-1.286740422E0,9.932894306E0
1.093030990E0,2.179263115E0,9.607781410E0,-1.282104254E0,9.934910300E0
1.095591563E0,2.181805611E0,9.609724998E0,-1.275374413E0,9.936481780E0
1.098152344E0,2.177319050E0,9.604640961E0,-1.278814197E0,9.931022706E0
1.100713021E0,2.177019835E0,9.606434822E0,-1.277916789E0,9.932576537E0
1.103273751E0,2.172234297E0,9.608079910E0,-1.274626732E0,9.932697252E0
1.105834688E0,2.170589209E0,9.607332230E0,-1.274028540E0,9.931537585E0
1.108395730E0,2.171486616E0,9.609127045E0,-1.273430347E0,9.933393254E0
1.110956615E0,2.172533512E0,9.610772133E0,-1.272682548E0,9.935117700E0
1.113517396E0,2.171187401E0,9.617202759E0,-1.272084355E0,9.940967872E0
1.116077917E0,2.163111687E0,9.616006851E0,-1.278216004E0,9.938836757E0
1.118638542E0,2.162364006E0,9.618698120E0,-1.277468204E0,9.941181853E0
1.121199376E0,2.164158583E0,9.621240616E0,-1.276720405E0,9.943936260E0
1.123760001E0,2.165803671E0,9.626026154E0,-1.275823116E0,9.948809460E0
1.126320573E0,2.167448759E0,9.632606506E0,-1.277318597E0,9.955726243E0
1.128881042E0,2.168944120E0,9.638588905E0,-1.276122212E0,9.961686734E0
1.131441615E0,2.165653944E0,9.641579628E0,-1.275075316E0,9.963730817E0
1.134002605E0,2.158325911E0,9.637242317E0,-1.280907869E0,9.958691439E0
1.136563646E0,2.158026934E0,9.639784813E0,-1.282104254E0,9.961241027E0
1.139124323E0,2.155634165E0,9.642028809E0,-1.283151150E0,9.963029412E0
1.141684896E0,2.153540373E0,9.646514893E0,-1.283898950E0,9.967014710E0
1.144245626E0,2.154288054E0,9.648309708E0,-1.286740422E0,9.969279721E0
1.146806459E0,2.152642965E0,9.647412300E0,-1.289282799E0,9.968384320E0
1.149367188E0,2.151446581E0,9.644570351E0,-1.291226864E0,9.965627248E0
1.151927709E0,2.145763636E0,9.637392044E0,-1.297508121E0,9.958270649E0
1.154488073E0,2.151895285E0,9.635149002E0,-1.299003601E0,9.957618187E0
1.157048230E0,2.152642965E0,9.633204460E0,-1.297956705E0,9.955761725E0
1.159608438E0,2.153390884E0,9.629316330E0,-1.296760321E0,9.952005457E0
1.162169115E0,2.154138565E0,9.630662918E0,-1.298106313E0,9.953645624E0
1.164729948E0,2.155035973E0,9.629765511E0,-1.291974664E0,9.952173751E0
1.167290573E0,2.158176422E0,9.631410599E0,-1.288834095E0,9.954038824E0
1.169851042E0,2.154138565E0,9.626026154E0,-1.290628672E0,9.948186510E0
1.172411667E0,2.154437780E0,9.625128746E0,-1.285843015E0,9.946763181E0
1.174972188E0,2.157279253E0,9.626773834E0,-1.286441326E0,9.949048171E0
1.177532657E0,2.155035973E0,9.628418922E0,-1.286740422E0,9.950192556E0
1.180093126E0,2.150848389E0,9.630064011E0,-1.282104254E0,9.950280044E0
1.182653594E0,2.144866467E0,9.631559372E0,-1.280309677E0,9.950205071E0
1.185214219E0,2.139781713E0,9.630513191E0,-1.281057477E0,9.948193724E0
1.187774688E0,2.133201361E0,9.625278473E0,-1.288534999E0,9.942678521E0
1.190335053E0,2.133650064E0,9.626773834E0,-1.288834095E0,9.944261178E0
1.192895313E0,2.136641026E0,9.635448456E0,-1.291376472E0,9.953630243E0
1.195455678E0,2.139482498E0,9.640831947E0,-1.293470144E0,9.959723440E0
1.198016251E0,2.141875267E0,9.640831947E0,-1.295264840E0,9.960470938E0
1.200576928E0,2.141875267E0,9.638588905E0,-1.296610713E0,9.958475038E0
1.203137553E0,2.141875267E0,9.634401321E0,-1.300050497E0,9.954870656E0
1.205698126E0,2.135145664E0,9.628568649E0,-1.312313676E0,9.949389349E0
1.208258490E0,2.137837410E0,9.627372742E0,-1.319342613E0,9.949739677E0
1.210818803E0,2.137837410E0,9.628868103E0,-1.322782278E0,9.951643216E0
1.213379323E0,2.135743856E0,9.630213737E0,-1.323380470E0,9.952575261E0
1.215939896E0,2.136342049E0,9.629166603E0,-1.321436286E0,9.951432092E0
1.218500626E0,2.134547234E0,9.626026154E0,-1.319492102E0,9.947750037E0
1.221061251E0,2.130659103E0,9.628120422E0,-1.317697525E0,9.948705335E0
1.223621667E0,2.118096590E0,9.625428200E0,-1.323081374E0,9.944131210E0
1.226182136E0,2.120489597E0,9.629466057E0,-1.321436286E0,9.948330841E0
1.228742761E0,2.120339870E0,9.630662918E0,-1.317547917E0,9.948941749E0
1.231303126E0,2.125125647E0,9.631858826E0,-1.313958764E0,9.950645762E0
1.233863073E0,2.129462719E0,9.630513191E0,-1.313061476E0,9.950152071E0
1.236422969E0,2.135743856E0,9.627223015E0,-1.312313676E0,9.948215517E0
1.238982865E0,2.141426802E0,9.626773834E0,-1.313809156E0,9.949199852E0
1.241543021E0,2.141725779E0,9.619445801E0,-1.322034478E0,9.943264151E0
1.244103178E0,2.148455620E0,9.619445801E0,-1.318146229E0,9.944199744E0
1.246663178E0,2.154437780E0,9.619445801E0,-1.319342613E0,9.945652547E0
1.249223126E0,2.159672022E0,9.621988297E0,-1.313210964E0,9.948435307E0
1.251783021E0,2.166850567E0,9.629166603E0,-1.310070395E0,9.956524258E0
1.254342761E0,2.173281193E0,9.630811691E0,-1.304836154E0,9.958829367E0
1.256902501E0,2.178964138E0,9.634700775E0,-1.300050497E0,9.963206062E0
1.259462396E0,2.177169561E0,9.633653641E0,-1.305135250E0,9.962465949E0
1.262022136E0,2.179263115E0,9.636644363E0,-1.303490162E0,9.965600279E0
1.264581667E0,2.176571369E0,9.636943817E0,-1.296909928E0,9.964443006E0
1.267141198E0,2.176720858E0,9.634849548E0,-1.291226864E0,9.961712018E0
1.269700834E0,2.177019835E0,9.628418922E0,-1.288385391E0,9.955189763E0
1.272260365E0,2.179711819E0,9.625428200E0,-1.288235903E0,9.952867094E0
1.274819688E0,2.179861546E0,9.625128746E0,-1.283151150E0,9.951953407E0
1.277379115E0,2.173131704E0,9.618100166E0,-1.285693526E0,9.944011266E0
1.279938646E0,2.171037912E0,9.615857124E0,-1.283898950E0,9.941152366E0
1.282498334E0,2.162214279E0,9.613912582E0,-1.277468204E0,9.936519046E0
1.285058021E0,2.154587269E0,9.614809990E0,-1.271785259E0,9.935001519E0
1.287617865E0,2.150399685E0,9.613314629E0,-1.266700506E0,9.931997137E0
1.290177813E0,2.144417763E0,9.614510536E0,-1.264457226E0,9.931575528E0
1.292737709E0,2.139482498E0,9.613164902E0,-1.262363553E0,9.928941863E0
1.295297292E0,2.132902384E0,9.607631683E0,-1.267448187E0,9.922816337E0
1.297856823E0,2.133500576E0,9.609127045E0,-1.270289779E0,9.924756087E0
1.300416303E0,2.131705761E0,9.610472679E0,-1.272832036E0,9.925998991E0
1.302975834E0,2.127817631E0,9.611669540E0,-1.274776220E0,9.926573106E0
1.305535417E0,2.122284174E0,9.615407944E0,-1.274028540E0,9.928912768E0
1.308095209E0,2.117498398E0,9.616305351E0,-1.273280740E0,9.928664156E0
1.310654948E0,2.115853310E0,9.619595528E0,-1.270140171E0,9.931098096E0
1.313214376E0,2.109871387E0,9.615707397E0,-1.274178028E0,9.926576231E0
1.315773751E0,2.110918283E0,9.618399620E0,-1.271486163E0,9.929061603E0
1.318333334E0,2.111965179E0,9.618698120E0,-1.271486163E0,9.929573380E0
1.320893178E0,2.113011837E0,9.621240616E0,-1.273729444E0,9.932546335E0
1.323453126E0,2.116451740E0,9.618997574E0,-1.273131251E0,9.931029427E0
1.326013126E0,2.117199421E0,9.614660263E0,-1.272383451E0,9.926892012E0
1.328573021E0,2.117947102E0,9.611071587E0,-1.271785259E0,9.923499116E0
1.331133021E0,2.111665964E0,9.600901604E0,-1.278066397E0,9.913117495E0
1.333693126E0,2.112563372E0,9.600751877E0,-1.274925828E0,9.912759276E0
1.336253126E0,2.118096590E0,9.600751877E0,-1.269541979E0,9.913249044E0
1.338813230E0,2.125574350E0,9.600901604E0,-1.264905930E0,9.914401895E0
1.341373542E0,2.132304192E0,9.598658562E0,-1.258176088E0,9.912818692E0
1.343933751E0,2.135743856E0,9.597013474E0,-1.252194047E0,9.911208774E0
1.346493646E0,2.136641026E0,9.593125343E0,-1.249202967E0,9.907259802E0
1.349053542E0,2.128116608E0,9.585348129E0,-1.248754263E0,9.897836444E0
1.351613855E0,2.129163504E0,9.584750175E0,-1.244417310E0,9.896936273E0
1.354174584E0,2.127967119E0,9.586694717E0,-1.245314598E0,9.898675069E0
1.356735521E0,2.127069712E0,9.590881348E0,-1.246062398E0,9.902631069E0
1.359296407E0,2.126322031E0,9.592377663E0,-1.246511102E0,9.903976198E0
1.361857240E0,2.125723839E0,9.596265793E0,-1.246810198E0,9.907651320E0
1.364418073E0,2.125424623E0,9.602098465E0,-1.249352574E0,9.913556709E0
1.366978698E0,2.118395805E0,9.602696419E0,-1.255932808E0,9.913462892E0
1.369538907E0,2.118246317E0,9.609426498E0,-1.258026481E0,9.920215507E0
1.372099011E0,2.120788574E0,9.613164902E0,-1.257278800E0,9.924285042E0
1.374659167E0,2.125574350E0,9.618997574E0,-1.258774281E0,9.931147634E0
1.377219428E0,2.132154465E0,9.624082565E0,-1.262513041E0,9.937956886E0
1.379779948E0,2.138136625E0,9.626325607E0,-1.265504122E0,9.941794285E0
1.382340782E0,2.143520355E0,9.633204460E0,-1.265653610E0,9.949632493E0
1.384901876E0,2.138884306E0,9.629914284E0,-1.272682548E0,9.946345864E0
1.387462657E0,2.138734818E0,9.633354187E0,-1.270289779E0,9.949338452E0
1.390023282E0,2.140978098E0,9.643673897E0,-1.267896891E0,9.959507818E0
1.392584011E0,2.145614147E0,9.652795792E0,-1.263410330E0,9.968767844E0
1.395144792E0,2.152194500E0,9.656085968E0,-1.264158130E0,9.973466457E0
1.397705521E0,2.155634165E0,9.656684875E0,-1.262213945E0,9.974542871E0
1.400266511E0,2.156381845E0,9.655039787E0,-1.255633712E0,9.972281182E0
1.402827709E0,2.152493477E0,9.649057388E0,-1.261466146E0,9.966385177E0
1.405388542E0,2.153091669E0,9.647562027E0,-1.260419369E0,9.964934209E0
1.407949271E0,2.155933142E0,9.648907661E0,-1.256979704E0,9.966416846E0
1.410510053E0,2.156232357E0,9.655039787E0,-1.253689528E0,9.972004247E0
1.413070678E0,2.156681061E0,9.658030510E0,-1.250848055E0,9.974640213E0
1.415631146E0,2.159522533E0,9.660871506E0,-1.243370414E0,9.977071003E0
1.418191355E0,2.162214279E0,9.663414001E0,-1.239183068E0,9.979594953E0
1.420751511E0,2.155334949E0,9.661170959E0,-1.239930749E0,9.976027331E0
1.423311823E0,2.157877445E0,9.662965775E0,-1.236790180E0,9.977925264E0
1.425872292E0,2.162513494E0,9.664760590E0,-1.233799219E0,9.980296708E0
1.428432813E0,2.166850567E0,9.666554451E0,-1.233500123E0,9.982937388E0
1.430993230E0,2.165953159E0,9.668050766E0,-1.235593796E0,9.984450447E0
1.433553490E0,2.167747736E0,9.667153358E0,-1.234845996E0,9.983878452E0
1.436113698E0,2.169243336E0,9.664161682E0,-1.231705427E0,9.980918591E0
1.438674271E0,2.163859367E0,9.654590607E0,-1.238136172E0,9.971278169E0
1.441234948E0,2.162962198E0,9.654890060E0,-1.237537980E0,9.971299203E0
1.443795626E0,2.157428741E0,9.650552750E0,-1.236939788E0,9.965825966E0
1.446356042E0,2.157578230E0,9.646814346E0,-1.236341596E0,9.962163991E0
1.448916198E0,2.155484438E0,9.641280174E0,-1.240379453E0,9.956853808E0
1.451476771E0,2.156082869E0,9.643822670E0,-1.243819118E0,9.959874247E0
1.454037501E0,2.159223318E0,9.646066666E0,-1.244267821E0,9.962783239E0
1.456597865E0,2.157428741E0,9.641280174E0,-1.253988624E0,9.958979347E0
1.459157969E0,2.162064791E0,9.643224716E0,-1.256231904E0,9.962149652E0
1.461718073E0,2.163859367E0,9.642626762E0,-1.255633712E0,9.961885076E0
1.464278386E0,2.165653944E0,9.642327309E0,-1.252642632E0,9.961608630E0
1.466838959E0,2.167299032E0,9.642177582E0,-1.249950767E0,9.961483350E0
1.469399115E0,2.168794632E0,9.644570351E0,-1.249801159E0,9.964106098E0
1.471958959E0,2.167897224E0,9.641879082E0,-1.251894951E0,9.961568730E0
1.474518803E0,2.160270214E0,9.632756233E0,-1.263111234E0,9.952497678E0
1.477078542E0,2.157428741E0,9.631111145E0,-1.266550899E0,9.950726197E0
1.479638386E0,2.157428741E0,9.629615784E0,-1.269541979E0,9.949660082E0
1.482198751E0,2.155185461E0,9.630961418E0,-1.264756322E0,9.949866872E0
1.484758959E0,2.155783653E0,9.627372742E0,-1.260568857E0,9.945991299E0
1.487318803E0,2.156381845E0,9.629166603E0,-1.256680489E0,9.947365379E0
1.489878594E0,2.156980038E0,9.630961418E0,-1.253091335E0,9.948779755E0
1.492438490E0,2.150698900E0,9.627970695E0,-1.254586816E0,9.944712844E0
1.494998386E0,2.153839588E0,9.633953094E0,-1.249502063E0,9.950544337E0
1.497558126E0,2.156681061E0,9.639486313E0,-1.245015502E0,9.955954659E0
1.500117917E0,2.161765814E0,9.641879082E0,-1.238584876E0,9.958571994E0
1.502678021E0,2.166252136E0,9.644122124E0,-1.237537980E0,9.961588232E0
1.505238230E0,2.167897224E0,9.646215439E0,-1.236640692E0,9.963861243E0
1.507798282E0,2.169542313E0,9.643524170E0,-1.233201027E0,9.961187531E0
1.510358282E0,2.161616087E0,9.636494637E0,-1.237089276E0,9.953140352E0
1.512918438E0,2.163410664E0,9.634251595E0,-1.236640692E0,9.951302914E0
1.515478803E0,2.162662983E0,9.632456779E0,-1.236191988E0,9.949346984E0
1.518039428E0,2.162214279E0,9.628718376E0,-1.235593796E0,9.945555801E0
1.520599896E0,2.159372807E0,9.630213737E0,-1.234995604E0,9.946311964E0
1.523159792E0,2.154736757E0,9.631709099E0,-1.231855035E0,9.946365039E0
1.525719688E0,2.148455620E0,9.630662918E0,-1.226770282E0,9.943364376E0
1.528279896E0,2.138435602E0,9.620492935E0,-1.226620674E0,9.931333718E0
1.530840313E0,2.133500576E0,9.620343208E0,-1.222732425E0,9.929647664E0
1.533400626E0,2.131705761E0,9.622735977E0,-1.221535921E0,9.931433288E0
1.535961251E0,2.132752657E0,9.627223015E0,-1.220489144E0,9.935876943E0
1.538522240E0,2.133650064E0,9.626475334E0,-1.221685529E0,9.935492212E0
1.541083126E0,2.132304192E0,9.628418922E0,-1.222732425E0,9.937215238E0
1.543643646E0,2.128714800E0,9.627820969E0,-1.223480105E0,9.935958276E0
1.546203907E0,2.118694782E0,9.620492935E0,-1.228564858E0,9.927342218E0
1.548764532E0,2.116302013E0,9.615557671E0,-1.226770282E0,9.921826891E0
1.551325365E0,2.116750717E0,9.608827591E0,-1.227517962E0,9.915493009E0
1.553885938E0,2.117199421E0,9.605537415E0,-1.227966666E0,9.912456030E0
1.556446146E0,2.117648125E0,9.605238914E0,-1.230808139E0,9.912615036E0
1.559006355E0,2.120639086E0,9.604939461E0,-1.233051419E0,9.913243061E0
1.561566771E0,2.120938063E0,9.602546692E0,-1.234845996E0,9.911212129E0
1.564127084E0,2.116750717E0,9.598359108E0,-1.243370414E0,9.907325631E0
1.566687396E0,2.121685982E0,9.600901604E0,-1.242174029E0,9.910694190E0
1.569247657E0,2.123779535E0,9.600901604E0,-1.245763302E0,9.911593077E0
1.571808073E0,2.125723839E0,9.601051331E0,-1.246361494E0,9.912230095E0
1.574368386E0,2.130060911E0,9.598808289E0,-1.242024541E0,9.910444239E0
1.576928490E0,2.133799553E0,9.599406242E0,-1.242772222E0,9.911921284E0
1.579488698E0,2.137239218E0,9.600004196E0,-1.243520021E0,9.913335165E0
1.582048959E0,2.135893345E0,9.593723297E0,-1.250848055E0,9.907885140E0
1.584609011E0,2.140828609E0,9.592078209E0,-1.246361494E0,9.906792038E0
1.587169219E0,2.147707939E0,9.590732574E0,-1.242174029E0,9.906452293E0
1.589729584E0,2.151446581E0,9.592078209E0,-1.238435268E0,9.908098136E0
1.592289792E0,2.154886246E0,9.595816612E0,-1.232752323E0,9.911756125E0
1.594850053E0,2.158026934E0,9.601649284E0,-1.229910851E0,9.917733104E0
1.597410105E0,2.160868406E0,9.606734276E0,-1.227368474E0,9.922959694E0
1.599970209E0,2.153989077E0,9.602098465E0,-1.232004523E0,9.917550051E0
1.602530678E0,2.156681061E0,9.608977318E0,-1.229761243E0,9.924516664E0
1.605091042E0,2.159223318E0,9.615109444E0,-1.223031521E0,9.930175278E0
1.607651251E0,2.164009094E0,9.623035431E0,-1.216899872E0,9.938138234E0
1.610211407E0,2.168196440E0,9.627671242E0,-1.211366415E0,9.942863669E0
1.612771355E0,2.174477577E0,9.634251595E0,-1.208973646E0,9.950315261E0
1.615331355E0,2.177618265E0,9.640084267E0,-1.206580877E0,9.956358942E0
1.617891198E0,2.173580170E0,9.635896683E0,-1.213759303E0,9.952294574E0
1.620451251E0,2.176122665E0,9.640981674E0,-1.209123135E0,9.957209260E0
1.623011459E0,2.178664923E0,9.643074989E0,-1.204935789E0,9.959284430E0
1.625571615E0,2.178515434E0,9.640383720E0,-1.201047421E0,9.956176107E0
1.628131719E0,2.176122665E0,9.640383720E0,-1.200000525E0,9.955526575E0
1.630691876E0,2.176571369E0,9.638289452E0,-1.201196909E0,9.953741030E0
1.633251928E0,2.177169561E0,9.641280174E0,-1.204636693E0,9.957183350E0
1.635811823E0,2.173131704E0,9.634551048E0,-1.212114215E0,9.950693251E0
1.638371928E0,2.173430681E0,9.632606506E0,-1.207627654E0,9.948330191E0
1.640932240E0,2.171486616E0,9.630961418E0,-1.203589797E0,9.945823262E0
1.643492605E0,2.165055752E0,9.629765511E0,-1.199851036E0,9.942811107E0
1.646053126E0,2.159522533E0,9.631111145E0,-1.196560860E0,9.942514639E0
1.648613594E0,2.152493477E0,9.632456779E0,-1.195962667E0,9.942222009E0
1.651173959E0,2.146511555E0,9.631410599E0,-1.197607756E0,9.940112993E0
1.653734115E0,2.136641026E0,9.626026154E0,-1.203589797E0,9.933490966E0
1.656294011E0,2.136790514E0,9.622735977E0,-1.204935789E0,9.930498056E0
1.658854115E0,2.139333010E0,9.619894981E0,-1.205982566E0,9.928419770E0
1.661414896E0,2.139333010E0,9.615258217E0,-1.209272742E0,9.924327527E0
1.663975782E0,2.137089729E0,9.611220360E0,-1.211815119E0,9.920242195E0
1.666536511E0,2.135295153E0,9.605537415E0,-1.211665511E0,9.914331431E0
1.669096823E0,2.136192322E0,9.607781410E0,-1.213759303E0,9.916954820E0
1.671656771E0,2.127667904E0,9.607781410E0,-1.222582817E0,9.916206083E0
1.674217136E0,2.126471519E0,9.616305351E0,-1.221535921E0,9.924079793E0
1.676777917E0,2.130359888E0,9.621540070E0,-1.218096256E0,9.929563185E0
1.679338282E0,2.133949041E0,9.626175880E0,-1.214955688E0,9.934440997E0
1.681898438E0,2.134696960E0,9.630513191E0,-1.209721446E0,9.938165898E0
1.684458751E0,2.135594130E0,9.631858826E0,-1.200299621E0,9.938520308E0
1.687018959E0,2.138734818E0,9.635746956E0,-1.194317579E0,9.942243233E0
1.689579323E0,2.134846449E0,9.632158279E0,-1.198205948E0,9.938397254E0
1.692140105E0,2.137538433E0,9.637691498E0,-1.190728426E0,9.943440156E0
1.694700626E0,2.140080690E0,9.642626762E0,-1.183998585E0,9.947967073E0
1.697261251E0,2.139931202E0,9.644720078E0,-1.173230886E0,9.948688438E0
1.699821980E0,2.144716740E0,9.651450157E0,-1.166052341E0,9.955399444E0
1.702382553E0,2.146810532E0,9.657432556E0,-1.162014484E0,9.961178479E0
1.704942813E0,2.148605108E0,9.660423279E0,-1.158275723E0,9.964029531E0
1.707503282E0,2.145763636E0,9.658478737E0,-1.164407372E0,9.962246615E0
1.710064011E0,2.149502516E0,9.665508270E0,-1.170688510E0,9.970602929E0
1.712624428E0,2.155334949E0,9.671789169E0,-1.173679471E0,9.978301357E0
1.715184740E0,2.162812471E0,9.677322388E0,-1.180858016E0,9.986127980E0
1.717745001E0,2.169692039E0,9.682407379E0,-1.182353497E0,9.992724153E0
1.720305261E0,2.173281193E0,9.684500694E0,-1.181007504E0,9.995373108E0
1.722865521E0,2.176571369E0,9.684052467E0,-1.179811120E0,9.995513463E0
1.725425678E0,2.172683001E0,9.674481392E0,-1.188036442E0,9.986369321E0
1.727985573E0,2.175374985E0,9.669994354E0,-1.191326618E0,9.983000864E0
1.730545313E0,2.177917242E0,9.663713455E0,-1.191625714E0,9.977507359E0
1.733105053E0,2.177917242E0,9.655936241E0,-1.189531922E0,9.969724891E0
1.735664948E0,2.178066730E0,9.651599884E0,-1.194616675E0,9.966165963E0
1.738224636E0,2.175823450E0,9.643224716E0,-1.196560860E0,9.957798376E0
1.740784323E0,2.176421642E0,9.636046410E0,-1.193420291E0,9.950600663E0
1.743344115E0,2.172533512E0,9.622885704E0,-1.197458148E0,9.937491492E0
1.745903855E0,2.175374985E0,9.619894981E0,-1.194915771E0,9.934911146E0
1.748463646E0,2.175524473E0,9.617502213E0,-1.189980626E0,9.932034506E0
1.751023490E0,2.175823450E0,9.617950439E0,-1.185643673E0,9.932015368E0
1.753583803E0,2.178515434E0,9.618399620E0,-1.181605697E0,9.932559226E0
1.756144428E0,2.178664923E0,9.621390343E0,-1.175623655E0,9.934778505E0
1.758705105E0,2.178964138E0,9.624082565E0,-1.167996526E0,9.936552009E0
1.761265834E0,2.165055752E0,9.617202759E0,-1.170389414E0,9.927127817E0
1.763826303E0,2.164009094E0,9.619745255E0,-1.168744326E0,9.929169020E0
1.766386667E0,2.163261175E0,9.619745255E0,-1.169492126E0,9.929094093E0
1.768947292E0,2.162662983E0,9.622287750E0,-1.174875975E0,9.932062539E0
1.771507709E0,2.162214279E0,9.624680519E0,-1.179512024E0,9.934832374E0
1.774068230E0,2.157279253E0,9.626773834E0,-1.181007504E0,9.935965326E0
1.776628698E0,2.152942181E0,9.626475334E0,-1.182203889E0,9.934877625E0
1.779188751E0,2.144866467E0,9.616903305E0,-1.187587738E0,9.924497266E0
1.781748542E0,2.143819571E0,9.621838570E0,-1.186241865E0,9.928892666E0
1.784308334E0,2.143221378E0,9.623932838E0,-1.179960608E0,9.930044723E0
1.786868230E0,2.142772675E0,9.626026154E0,-1.176969647E0,9.931621811E0
1.789428178E0,2.140080690E0,9.627820969E0,-1.171585798E0,9.932144544E0
1.791988334E0,2.135444641E0,9.632008553E0,-1.164556861E0,9.934379963E0
1.794548751E0,2.136342049E0,9.633354187E0,-1.158126116E0,9.935125885E0
1.797109167E0,2.127817631E0,9.627671242E0,-1.161864996E0,9.928221980E0
1.799669636E0,2.126621008E0,9.633803368E0,-1.156481147E0,9.933284093E0
1.802230053E0,2.123331070E0,9.639186859E0,-1.156481147E0,9.937801909E0
1.804790105E0,2.122882366E0,9.646514893E0,-1.153789163E0,9.944501423E0
1.807350105E0,2.125125647E0,9.650552750E0,-1.156331539E0,9.949192430E0
1.809910157E0,2.127069712E0,9.656684875E0,-1.160668492E0,9.956060450E0
1.812470261E0,2.129014015E0,9.659825325E0,-1.159621716E0,9.959400008E0
1.815030626E0,2.121386766E0,9.653244972E0,-1.165454149E0,9.952070321E0
1.817591198E0,2.121087790E0,9.653693199E0,-1.166800141E0,9.952599076E0
1.820151771E0,2.120788574E0,9.656684875E0,-1.167847037E0,9.955559937E0
1.822712396E0,2.120788574E0,9.656983376E0,-1.166201949E0,9.955656637E0
1.825273282E0,2.120788574E0,9.654890060E0,-1.167099237E0,9.953731305E0
1.827833959E0,2.123331070E0,9.655787468E0,-1.165304661E0,9.954933521E0
1.830394428E0,2.125723839E0,9.654142380E0,-1.168445230E0,9.954216754E0
1.832954480E0,2.123331070E0,9.648309708E0,-1.175623655E0,9.948894714E0
1.835514219E0,2.129911184E0,9.649356842E0,-1.178166032E0,9.951617171E0
1.838074063E0,2.135743856E0,9.655188560E0,-1.180110216E0,9.958751331E0
1.840633959E0,2.140978098E0,9.658180237E0,-1.181755304E0,9.962970355E0
1.843193907E0,2.143370867E0,9.663115501E0,-1.185494065E0,9.968712858E0
1.845753803E0,2.147857428E0,9.665358543E0,-1.186241865E0,9.971941489E0
1.848313438E0,2.154437780E0,9.664909363E0,-1.184297681E0,9.972694527E0
1.850872865E0,2.150848389E0,9.657731056E0,-1.189531922E0,9.965585991E0
1.853432553E0,2.156232357E0,9.657581329E0,-1.190279722E0,9.966693580E0
1.855992344E0,2.156531334E0,9.660123825E0,-1.193121195E0,9.969561570E0
1.858552032E0,2.156681061E0,9.659974098E0,-1.195663571E0,9.969753465E0
1.861111667E0,2.159522533E0,9.657581329E0,-1.197607756E0,9.968283656E0
1.863671094E0,2.162064791E0,9.658030510E0,-1.201645613E0,9.969755748E0
1.866230157E0,2.164308071E0,9.653693199E0,-1.207328558E0,9.966727851E0
1.868789063E0,2.157129526E0,9.647860527E0,-1.216899872E0,9.960686013E0
1.871348073E0,2.159522533E0,9.646664619E0,-1.218993545E0,9.960302260E0
1.873907396E0,2.159223318E0,9.645767212E0,-1.223031521E0,9.959863279E0
1.876466876E0,2.159073830E0,9.647412300E0,-1.226620674E0,9.961865396E0
1.879026094E0,2.156830549E0,9.648907661E0,-1.227069378E0,9.962882933E0
1.881585001E0,2.150100708E0,9.645767212E0,-1.224975586E0,9.958128506E0
1.884144063E0,2.139482498E0,9.645318985E0,-1.225424290E0,9.955462238E0
1.886703386E0,2.128266096E0,9.638139725E0,-1.227966666E0,9.946414231E0
1.889262865E0,2.126920223E0,9.638139725E0,-1.226172090E0,9.945904935E0
1.891822761E0,2.128415823E0,9.638289452E0,-1.219890952E0,9.945597589E0
1.894382917E0,2.129761696E0,9.636046410E0,-1.214207888E0,9.943016448E0
1.896942917E0,2.128714800E0,9.641429901E0,-1.213759303E0,9.947955010E0
1.899502761E0,2.127967119E0,9.646365166E0,-1.211067319E0,9.952250450E0
1.902062761E0,2.127368927E0,9.650702477E0,-1.205982566E0,9.955709457E0
1.904622969E0,2.119891405E0,9.650104523E0,-1.213310599E0,9.954425120E0
1.907183386E0,2.122134686E0,9.658180237E0,-1.211067319E0,9.962458791E0
1.909743646E0,2.124228239E0,9.660573006E0,-1.213759303E0,9.965552070E0
1.912303594E0,2.121237278E0,9.660273552E0,-1.213609695E0,9.964606424E0
1.914863542E0,2.118844509E0,9.660273552E0,-1.215703487E0,9.964352569E0
1.917423490E0,2.116900206E0,9.658030510E0,-1.219890952E0,9.962276534E0
1.919983386E0,2.120040894E0,9.656085968E0,-1.220937729E0,9.961187607E0
1.922543178E0,2.116003036E0,9.647562027E0,-1.228863955E0,9.953041170E0
1.925102813E0,2.118694782E0,9.648757935E0,-1.227069378E0,9.954551548E0
1.927662396E0,2.118694782E0,9.647562027E0,-1.225274801E0,9.953171303E0
1.930221719E0,2.121386766E0,9.646664619E0,-1.223629713E0,9.952672494E0
1.932780886E0,2.123779535E0,9.645916939E0,-1.224527001E0,9.952568487E0
1.935339948E0,2.123480558E0,9.645467758E0,-1.225125194E0,9.952142970E0
1.937899011E0,2.123480558E0,9.645169258E0,-1.227966666E0,9.952203868E0
1.940457969E0,2.116601229E0,9.640383720E0,-1.237388372E0,9.947267415E0
1.943016980E0,2.116750717E0,9.644869804E0,-1.236939788E0,9.951591188E0
1.945576251E0,2.117049932E0,9.646514893E0,-1.231555939E0,9.952581576E0
1.948135469E0,2.119891405E0,9.648159981E0,-1.231555939E0,9.954780792E0
1.950694532E0,2.122433662E0,9.649655342E0,-1.229013562E0,9.956457563E0
1.953253959E0,2.127219439E0,9.651001930E0,-1.226770282E0,9.958507224E0
1.955813855E0,2.131556273E0,9.652347565E0,-1.219741344E0,9.959875230E0
1.958373698E0,2.126022816E0,9.644421577E0,-1.225424290E0,9.951708661E0
1.960933594E0,2.124976158E0,9.645916939E0,-1.224078298E0,9.952768707E0
1.963493386E0,2.124377966E0,9.640233994E0,-1.222732425E0,9.946967768E0
1.966052917E0,2.130958080E0,9.640233994E0,-1.223779202E0,9.948503874E0
1.968612292E0,2.136940241E0,9.637990952E0,-1.219890952E0,9.947136126E0
1.971171563E0,2.139931202E0,9.636046410E0,-1.216301680E0,9.945455532E0
1.973730886E0,2.140230417E0,9.632158279E0,-1.213011503E0,9.941350827E0
1.976290261E0,2.133650064E0,9.624231339E0,-1.219442248E0,9.933042376E0
1.978849636E0,2.131705761E0,9.623483658E0,-1.216451168E0,9.931533648E0
1.981409115E0,2.130210400E0,9.620642662E0,-1.216152072E0,9.928423210E0
1.983968438E0,2.133650064E0,9.618249893E0,-1.220489144E0,9.927375653E0
1.986527813E0,2.136940241E0,9.616305351E0,-1.224078298E0,9.926641420E0
1.989087448E0,2.135145664E0,9.614809990E0,-1.227218866E0,9.925194421E0
1.991646980E0,2.136042833E0,9.613464355E0,-1.232154131E0,9.924695446E0
1.994206303E0,2.132304192E0,9.612716675E0,-1.243370414E0,9.924566138E0
1.996765834E0,2.137687922E0,9.615857124E0,-1.242174029E0,9.928615926E0
1.999325573E0,2.142623186E0,9.623483658E0,-1.240977645E0,9.936915887E0
2.001885261E0,2.144567251E0,9.632756233E0,-1.242174029E0,9.946464581E0
2.004445209E0,2.146511555E0,9.640981674E0,-1.240678549E0,9.954663367E0
2.007005157E0,2.148306131E0,9.648309708E0,-1.239332557E0,9.961979956E0
2.009564948E0,2.152343988E0,9.657133102E0,-1.242772222E0,9.971824667E0
2.012124740E0,2.146661043E0,9.655787468E0,-1.247856975E0,9.969931408E0
2.014684428E0,2.150250196E0,9.660722733E0,-1.246062398E0,9.975259953E0
2.017244063E0,2.155933142E0,9.662816048E0,-1.242024541E0,9.978010154E0
2.019803855E0,2.161017895E0,9.667153358E0,-1.235892892E0,9.982548955E0
2.022363698E0,2.165653944E0,9.675827026E0,-1.232901812E0,9.991583084E0
2.024923646E0,2.172234297E0,9.681210518E0,-1.227667570E0,9.997580037E0
2.027483698E0,2.175673962E0,9.681210518E0,-1.223031521E0,9.997759768E0
2.030043542E0,2.171785593E0,9.674331665E0,-1.223480105E0,9.990307773E0
2.032603126E0,2.174627066E0,9.672088623E0,-1.212712407E0,9.987440743E0
2.035162761E0,2.177319050E0,9.670443535E0,-1.205683470E0,9.985583059E0
2.037722344E0,2.179711819E0,9.668947220E0,-1.196859956E0,9.983594428E0
2.040281771E0,2.182104588E0,9.670293808E0,-1.193868995E0,9.985063142E0
2.042841355E0,2.186591148E0,9.673882484E0,-1.191177011E0,9.989198458E0
2.045401355E0,2.188236237E0,9.672387123E0,-1.188634634E0,9.987807706E0
2.047961615E0,2.182852507E0,9.659525871E0,-1.195813060E0,9.975031529E0
2.050521771E0,2.184347868E0,9.652048111E0,-1.198056340E0,9.968387399E0
2.053081771E0,2.185693979E0,9.648010254E0,-1.200000525E0,9.965006838E0
2.055642084E0,2.184796572E0,9.644570351E0,-1.204038501E0,9.961966775E0
2.058202553E0,2.186441660E0,9.644122124E0,-1.204935789E0,9.962002255E0
2.060762605E0,2.185544491E0,9.643822670E0,-1.208076358E0,9.961895849E0
2.063322240E0,2.184946060E0,9.641429901E0,-1.208225846E0,9.959466327E0
2.065881719E0,2.172832489E0,9.629914284E0,-1.220040441E0,9.947107560E0
2.068441094E0,2.170738697E0,9.628568649E0,-1.224078298E0,9.945843775E0
2.071000834E0,2.169093609E0,9.634551048E0,-1.229910851E0,9.951995864E0
2.073560938E0,2.162962198E0,9.637691498E0,-1.232602715E0,9.954034977E0
2.076121042E0,2.157727718E0,9.638139725E0,-1.237089276E0,9.953889498E0
2.078680886E0,2.155783653E0,9.638588905E0,-1.238584876E0,9.954089197E0
2.081240626E0,2.153989077E0,9.634401321E0,-1.239781260E0,9.949794738E0
2.083800573E0,2.148156643E0,9.621390343E0,-1.249950767E0,9.937208160E0
2.086360417E0,2.149203300E0,9.613912582E0,-1.252792239E0,9.930552772E0
2.088920313E0,2.150250196E0,9.612267494E0,-1.255035520E0,9.929470099E0
2.091480105E0,2.153689861E0,9.613314629E0,-1.254437327E0,9.931153567E0
2.094039844E0,2.154437780E0,9.614361763E0,-1.253839016E0,9.932253850E0
2.096599532E0,2.157578230E0,9.615407944E0,-1.248455167E0,9.933270058E0
2.099159376E0,2.155634165E0,9.616455078E0,-1.243520021E0,9.933242621E0
2.101719271E0,2.147109747E0,9.612865448E0,-1.243819118E0,9.927957916E0
2.104279063E0,2.145913363E0,9.616006851E0,-1.237687469E0,9.929974934E0
2.106839063E0,2.145015955E0,9.618847847E0,-1.227517962E0,9.931270196E0
2.109399011E0,2.141875267E0,9.621540070E0,-1.223181009E0,9.932665038E0
2.111958803E0,2.139333010E0,9.621540070E0,-1.221835017E0,9.931951462E0
2.114518490E0,2.139631987E0,9.619297028E0,-1.217946768E0,9.929365270E0
2.117078073E0,2.137538433E0,9.617502213E0,-1.214506984E0,9.926754080E0
2.119637605E0,2.128864288E0,9.611370087E0,-1.223181009E0,9.920013603E0
2.122197188E0,2.127518415E0,9.609874725E0,-1.219741344E0,9.917852378E0
2.124757292E0,2.131257296E0,9.606434822E0,-1.216451168E0,9.914918108E0
2.127317344E0,2.134696960E0,9.605836868E0,-1.208824039E0,9.914145884E0
2.129877292E0,2.135444641E0,9.607781410E0,-1.204337597E0,9.915645036E0
2.132437501E0,2.136192322E0,9.607332230E0,-1.200299621E0,9.914881209E0
2.134997657E0,2.136940241E0,9.606884003E0,-1.194317579E0,9.913885631E0
2.137557553E0,2.130808592E0,9.599854469E0,-1.195813060E0,9.905933573E0
2.140117605E0,2.131556273E0,9.597312927E0,-1.193420291E0,9.903342848E0
2.142677709E0,2.137239218E0,9.602546692E0,-1.198355436E0,9.910234619E0
2.145237865E0,2.142323971E0,9.602396965E0,-1.202542901E0,9.911694552E0
2.147798230E0,2.144417763E0,9.602546692E0,-1.208375454E0,9.913001652E0
2.150358855E0,2.146511555E0,9.602696419E0,-1.211067319E0,9.913928304E0
2.152919480E0,2.150698900E0,9.605238914E0,-1.210917830E0,9.917279988E0
2.155479948E0,2.149951220E0,9.598359108E0,-1.217498064E0,9.911260735E0
2.158040573E0,2.150848389E0,9.600901604E0,-1.219591737E0,9.914174923E0
2.160601094E0,2.154138565E0,9.598508835E0,-1.221236825E0,9.912774798E0
2.163161407E0,2.154587269E0,9.601201057E0,-1.220040441E0,9.915331902E0
2.165721511E0,2.157578230E0,9.603892326E0,-1.216600776E0,9.918165611E0
2.168281771E0,2.160419703E0,9.606136322E0,-1.211067319E0,9.920279854E0
2.170841928E0,2.160569191E0,9.608379364E0,-1.208524942E0,9.922174448E0
2.173401928E0,2.158625126E0,9.603444099E0,-1.217797160E0,9.918106217E0
2.175962032E0,2.165504456E0,9.602995872E0,-1.222283721E0,9.919723624E0
2.178521928E0,2.171636105E0,9.605089188E0,-1.225872993E0,9.923532953E0
2.181081511E0,2.174926281E0,9.609426498E0,-1.224227905E0,9.928248381E0
2.183641094E0,2.175374985E0,9.610921860E0,-1.224975586E0,9.929886228E0
2.186200730E0,2.171037912E0,9.614809990E0,-1.227966666E0,9.933069963E0
2.188760313E0,2.169841528E0,9.618399620E0,-1.230509043E0,9.936597809E0
2.191319844E0,2.164308071E0,9.616903305E0,-1.239482164E0,9.935057858E0
2.193879532E0,2.163410664E0,9.621988297E0,-1.238734365E0,9.939691509E0
2.196439271E0,2.165055752E0,9.628868103E0,-1.237986565E0,9.946616414E0
2.198999011E0,2.169093609E0,9.634999275E0,-1.239631653E0,9.953635755E0
2.201558751E0,2.175075769E0,9.638139725E0,-1.240828037E0,9.958129652E0
2.204118334E0,2.180459738E0,9.645916939E0,-1.241874933E0,9.966964012E0
2.206677657E0,2.185245275E0,9.655039787E0,-1.242622733E0,9.976933470E0
2.209236928E0,2.177767754E0,9.658628464E0,-1.254885912E0,9.980306350E0
2.211796198E0,2.175075769E0,9.668050766E0,-1.256979704E0,9.989101971E0
2.214355261E0,2.175374985E0,9.674032211E0,-1.256381392E0,9.994881178E0
2.216914219E0,2.175673962E0,9.676874161E0,-1.253240824E0,9.997302800E0
2.219473178E0,2.173580170E0,9.679565430E0,-1.252792239E0,9.999396285E0
2.222032344E0,2.174328089E0,9.679715157E0,-1.247557878E0,9.999049395E0
2.224591615E0,2.177618265E0,9.679864883E0,-1.242772222E0,9.999314390E0
2.227150886E0,2.178216457E0,9.673134804E0,-1.245464206E0,9.993264980E0
2.229710313E0,2.185095787E0,9.666405678E0,-1.239183068E0,9.987473004E0
2.232269688E0,2.186441660E0,9.662965775E0,-1.233649611E0,9.983753105E0
2.234829011E0,2.187787771E0,9.660123825E0,-1.233350515E0,9.981260499E0
2.237388490E0,2.191376925E0,9.657731056E0,-1.230658650E0,9.979399916E0
2.239948282E0,2.194816589E0,9.658180237E0,-1.228116274E0,9.980277297E0
2.242507969E0,2.193022013E0,9.658628464E0,-1.225723386E0,9.980022403E0
2.245067501E0,2.182254314E0,9.652197838E0,-1.230658650E0,9.972044811E0
2.247626928E0,2.176571369E0,9.655188560E0,-1.230957747E0,9.973734809E0
2.250186303E0,2.174178362E0,9.655637741E0,-1.231256843E0,9.973684633E0
2.252745573E0,2.169841528E0,9.653543472E0,-1.226471186E0,9.970122637E0
2.255305053E0,2.163859367E0,9.649655342E0,-1.222134113E0,9.964524443E0
2.257864636E0,2.158625126E0,9.646215439E0,-1.218395352E0,9.959599488E0
2.260424115E0,2.154138565E0,9.641131401E0,-1.217198968E0,9.953557202E0
2.262983855E0,2.143520355E0,9.629615784E0,-1.220788240E0,9.940548455E0
2.265543698E0,2.145015955E0,9.628269196E0,-1.219890952E0,9.939456478E0
2.268103021E0,2.144268274E0,9.627223015E0,-1.221535921E0,9.938483758E0
2.270662084E0,2.146062851E0,9.626475334E0,-1.220339537E0,9.937999885E0
2.273221355E0,2.147707939E0,9.628269196E0,-1.224078298E0,9.940552539E0
2.275780730E0,2.151745796E0,9.627521515E0,-1.227218866E0,9.941088805E0
2.278340313E0,2.150549412E0,9.631858826E0,-1.229761243E0,9.945344636E0
2.280899844E0,2.145015955E0,9.628868103E0,-1.238883972E0,9.942385422E0
2.283459376E0,2.146511555E0,9.632308006E0,-1.238285661E0,9.945965049E0
2.286018803E0,2.150250196E0,9.637990952E0,-1.237537980E0,9.952182964E0
2.288578178E0,2.151297092E0,9.640532494E0,-1.239183068E0,9.955075119E0
2.291137657E0,2.152343988E0,9.640682220E0,-1.238136172E0,9.955316143E0
2.293697240E0,2.153390884E0,9.643224716E0,-1.234696507E0,9.957577551E0
2.296256615E0,2.156830549E0,9.643224716E0,-1.231555939E0,9.957933067E0
2.298815730E0,2.152942181E0,9.636345863E0,-1.235593796E0,9.950930291E0
2.301375157E0,2.150998116E0,9.638887405E0,-1.233051419E0,9.952655882E0
2.303935001E0,2.144567251E0,9.641280174E0,-1.228116274E0,9.952975519E0
2.306495105E0,2.139183521E0,9.643524170E0,-1.221386433E0,9.953162782E0
2.309054323E0,2.134547234E0,9.643224716E0,-1.215404391E0,9.951144791E0
2.311612761E0,2.133051872E0,9.643074989E0,-1.210020542E0,9.950022877E0
2.314171563E0,2.131855488E0,9.647860527E0,-1.207478166E0,9.954095845E0
2.316730573E0,2.126172543E0,9.640383720E0,-1.212263823E0,9.946214935E0
2.319289532E0,2.125275135E0,9.637691498E0,-1.212562919E0,9.943450138E0
2.321849167E0,2.124527454E0,9.633055687E0,-1.212562919E0,9.938797090E0
2.324409323E0,2.123929262E0,9.631559372E0,-1.212562919E0,9.937218941E0
2.326969428E0,2.123630047E0,9.632756233E0,-1.212413311E0,9.938296799E0
2.329529376E0,2.121087790E0,9.633803368E0,-1.209870934E0,9.938459056E0
2.332089532E0,2.121386766E0,9.637392044E0,-1.209721446E0,9.941983364E0
2.334649584E0,2.114656925E0,9.631260872E0,-1.216600776E0,9.935445503E0
2.337209167E0,2.119891405E0,9.634401321E0,-1.218694448E0,9.939861395E0
2.339768855E0,2.124676943E0,9.634999275E0,-1.215703487E0,9.941096424E0
2.342328803E0,2.128864288E0,9.637990952E0,-1.210469127E0,9.944253026E0
2.344888751E0,2.135145664E0,9.638439178E0,-1.208225846E0,9.945761233E0
2.347448907E0,2.143071890E0,9.641280174E0,-1.206132174E0,9.949964590E0
2.350008907E0,2.150250196E0,9.639037132E0,-1.206580877E0,9.949394462E0
2.352568594E0,2.147109747E0,9.627820969E0,-1.218544960E0,9.939309266E0
2.355127969E0,2.155484438E0,9.624381065E0,-1.220489144E0,9.938028869E0
2.357687032E0,2.162962198E0,9.623783112E0,-1.219591737E0,9.938964275E0
2.360245938E0,2.164756775E0,9.628269196E0,-1.221087337E0,9.943882234E0
2.362804948E0,2.166551352E0,9.632158279E0,-1.222283721E0,9.948185532E0
2.365363803E0,2.170589209E0,9.640532494E0,-1.223181009E0,9.957283568E0
2.367922396E0,2.171785593E0,9.650403023E0,-1.223928809E0,9.967192829E0
2.370481146E0,2.168495417E0,9.652197838E0,-1.236191988E0,9.969727484E0
2.373040105E0,2.167000055E0,9.655188560E0,-1.240528941E0,9.972836479E0
2.375599323E0,2.165803671E0,9.653244972E0,-1.242024541E0,9.970881054E0
2.378158803E0,2.162513494E0,9.653992653E0,-1.247856975E0,9.971619015E0
2.380718230E0,2.162064791E0,9.652347565E0,-1.250548959E0,9.970266314E0
2.383277188E0,2.161915302E0,9.651001930E0,-1.250249863E0,9.968893657E0
2.385836042E0,2.159522533E0,9.647562027E0,-1.254736423E0,9.965608568E0
2.388394896E0,2.150549412E0,9.635448456E0,-1.260718465E0,9.952695151E0
2.390953594E0,2.151297092E0,9.633354187E0,-1.257428288E0,9.950412955E0
2.393512709E0,2.152044773E0,9.631559372E0,-1.251894951E0,9.948139203E0
2.396072084E0,2.150399685E0,9.632606506E0,-1.249352574E0,9.948477711E0
2.398631355E0,2.151596308E0,9.633653641E0,-1.249352574E0,9.949750298E0
2.401190521E0,2.152792692E0,9.629914284E0,-1.249352574E0,9.946388658E0
2.403749636E0,2.153839588E0,9.629166603E0,-1.249202967E0,9.945872636E0
2.406308803E0,2.147857428E0,9.624082565E0,-1.253390431E0,9.940183315E0
2.408868021E0,2.149053812E0,9.628120422E0,-1.250997543E0,9.944049980E0
2.411427084E0,2.147707939E0,9.631858826E0,-1.248604774E0,9.947078351E0
2.413986198E0,2.146661043E0,9.635298729E0,-1.246511102E0,9.949920862E0
2.416545209E0,2.148306131E0,9.640831947E0,-1.242174029E0,9.955091973E0
2.419104011E0,2.152194500E0,9.640981674E0,-1.238136172E0,9.955573815E0
2.421663178E0,2.155783653E0,9.636345863E0,-1.232154131E0,9.951118960E0
2.424222553E0,2.154437780E0,9.625577927E0,-1.233799219E0,9.940604262E0
2.426781876E0,2.159522533E0,9.622287750E0,-1.226620674E0,9.937633390E0
2.429341198E0,2.161616087E0,9.621988297E0,-1.227368474E0,9.937890936E0
2.431900313E0,2.161167383E0,9.619445801E0,-1.227966666E0,9.935405583E0
2.434459688E0,2.161017895E0,9.619745255E0,-1.233051419E0,9.936292714E0
2.437018959E0,2.163410664E0,9.620193481E0,-1.234995604E0,9.937488740E0
2.439578021E0,2.165504456E0,9.620642662E0,-1.239033461E0,9.938882165E0
2.442137240E0,2.158176422E0,9.614062309E0,-1.249352574E0,9.932210298E0
2.444696303E0,2.153241158E0,9.609874725E0,-1.249801159E0,9.927141716E0
2.447255209E0,2.148904324E0,9.608827591E0,-1.247707486E0,9.924924757E0
2.449814271E0,2.145315170E0,9.615109444E0,-1.245613694E0,9.929967788E0
2.452373386E0,2.142323971E0,9.618249893E0,-1.239033461E0,9.931540007E0
2.454932136E0,2.139781713E0,9.618847847E0,-1.233051419E0,9.930826526E0
2.457490834E0,2.137687922E0,9.621838570E0,-1.225274801E0,9.932310177E0
2.460049948E0,2.133799553E0,9.620044708E0,-1.227817178E0,9.930050138E0
2.462609480E0,2.134248257E0,9.624680519E0,-1.221386433E0,9.933844952E0
2.465168698E0,2.130060911E0,9.631260872E0,-1.220339537E0,9.939193833E0
2.467727657E0,2.128864288E0,9.632308006E0,-1.219292641E0,9.939823702E0
2.470286667E0,2.125424623E0,9.635746956E0,-1.216002584E0,9.942017477E0
2.472845626E0,2.122732878E0,9.636644363E0,-1.212862015E0,9.941928572E0
2.475404584E0,2.122732878E0,9.637392044E0,-1.214806199E0,9.942890645E0
2.477963386E0,2.113610268E0,9.633653641E0,-1.228265762E0,9.938977192E0
2.480522396E0,2.116601229E0,9.636494637E0,-1.231256843E0,9.942737201E0
2.483081511E0,2.116900206E0,9.641579628E0,-1.238734365E0,9.948657549E0
2.485640521E0,2.119741678E0,9.643822670E0,-1.240229845E0,9.951622508E0
2.488199532E0,2.122284174E0,9.645916939E0,-1.243819118E0,9.954641616E0
2.490758751E0,2.122284174E0,9.645318985E0,-1.246810198E0,9.954436403E0
2.493318021E0,2.122433662E0,9.642626762E0,-1.246959686E0,9.951878415E0
2.495877292E0,2.115703821E0,9.633503914E0,-1.256231904E0,9.942772195E0
2.498436719E0,2.111217260E0,9.633953094E0,-1.255783200E0,9.942197041E0
2.500996251E0,2.109721899E0,9.627372742E0,-1.252941728E0,9.935144457E0
2.503555782E0,2.106282234E0,9.626625061E0,-1.247856975E0,9.933049982E0
2.506115573E0,2.108226299E0,9.628418922E0,-1.248156071E0,9.935238430E0
2.508675573E0,2.109871387E0,9.627671242E0,-1.248156071E0,9.934863078E0
2.511235365E0,2.109273195E0,9.624830246E0,-1.250548959E0,9.932283895E0
2.513794948E0,2.104038954E0,9.615407944E0,-1.259521961E0,9.923177183E0
2.516354636E0,2.110619068E0,9.611071587E0,-1.261017561E0,9.920563249E0
2.518914376E0,2.114058733E0,9.609724998E0,-1.264606714E0,9.920448025E0
2.521474271E0,2.119741678E0,9.613614082E0,-1.262961745E0,9.925218027E0
2.524034323E0,2.127069712E0,9.612117767E0,-1.258923769E0,9.924823554E0
2.526594167E0,2.133650064E0,9.611071587E0,-1.257577896E0,9.925052232E0
2.529154167E0,2.139482498E0,9.610323906E0,-1.256381392E0,9.925432239E0
2.531714323E0,2.137837410E0,9.600303650E0,-1.262213945E0,9.916116327E0
2.534274219E0,2.144866467E0,9.600303650E0,-1.261017561E0,9.917481919E0
2.536833907E0,2.153689861E0,9.600303650E0,-1.257428288E0,9.918938254E0
2.539393907E0,2.161466599E0,9.605238914E0,-1.254287720E0,9.925008320E0
2.541954167E0,2.168495417E0,9.612117767E0,-1.248903871E0,9.932519379E0
2.544514115E0,2.174627066E0,9.618249893E0,-1.241725445E0,9.938894102E0
2.547073646E0,2.180160522E0,9.626175880E0,-1.232901812E0,9.946678283E0
2.549633126E0,2.178216457E0,9.623783112E0,-1.236790180E0,9.944419453E0
2.552192553E0,2.182703018E0,9.623185158E0,-1.238883972E0,9.945085145E0
2.554752032E0,2.184347868E0,9.622735977E0,-1.237986565E0,9.944899900E0
2.557311667E0,2.183450699E0,9.620044708E0,-1.239631653E0,9.942303746E0
2.559871198E0,2.180459738E0,9.617950439E0,-1.240828037E0,9.939770095E0
2.562430573E0,2.180459738E0,9.618548393E0,-1.244267821E0,9.940778655E0
2.564990001E0,2.182852507E0,9.619147301E0,-1.244716406E0,9.941939388E0
2.567549740E0,2.178066730E0,9.615258217E0,-1.252044439E0,9.938047119E0
2.570109584E0,2.177767754E0,9.618100166E0,-1.252044439E0,9.940731285E0
2.572669063E0,2.177618265E0,9.620792389E0,-1.252044439E0,9.943303414E0
2.575228490E0,2.177618265E0,9.625577927E0,-1.249502063E0,9.947614143E0
2.577787865E0,2.172981977E0,9.632308006E0,-1.247109294E0,9.952813160E0
2.580347188E0,2.171486616E0,9.635896683E0,-1.244866014E0,9.955679304E0
2.582906563E0,2.170290232E0,9.636794090E0,-1.240528941E0,9.955745682E0
2.585465730E0,2.159821510E0,9.630662918E0,-1.241127253E0,9.947607454E0
2.588024948E0,2.159522533E0,9.633953094E0,-1.235444188E0,9.950020711E0
2.590584376E0,2.161616087E0,9.636943817E0,-1.234995604E0,9.953315246E0
2.593143907E0,2.163560390E0,9.637392044E0,-1.236939788E0,9.954413042E0
2.595703334E0,2.165504456E0,9.642626762E0,-1.238584876E0,9.960108078E0
2.598262761E0,2.167299032E0,9.647262573E0,-1.242323637E0,9.965451734E0
2.600822240E0,2.166551352E0,9.649207115E0,-1.245314598E0,9.967544891E0
2.603381511E0,2.159073830E0,9.646365166E0,-1.250100255E0,9.963769937E0
2.605940678E0,2.161167383E0,9.652497292E0,-1.245613694E0,9.969598883E0
2.608499792E0,2.165504456E0,9.655488014E0,-1.243968725E0,9.973229995E0
2.611058855E0,2.167000055E0,9.658329964E0,-1.240080357E0,9.975822082E0
2.613617969E0,2.170888424E0,9.661021233E0,-1.236491084E0,9.978827487E0
2.616177084E0,2.174328089E0,9.663414001E0,-1.230808139E0,9.981190384E0
2.618736303E0,2.175225258E0,9.663264275E0,-1.225723386E0,9.980615171E0
2.621295730E0,2.166551352E0,9.656235695E0,-1.233051419E0,9.972825495E0
2.623855417E0,2.167747736E0,9.658778191E0,-1.233051419E0,9.975547212E0
2.626415053E0,2.171187401E0,9.658628464E0,-1.235444188E0,9.976446305E0
2.628974480E0,2.176870346E0,9.658778191E0,-1.237388372E0,9.978070486E0
2.631533751E0,2.181805611E0,9.658927917E0,-1.238883972E0,9.979478831E0
2.634092969E0,2.181656122E0,9.656833649E0,-1.244866014E0,9.978163706E0
2.636652448E0,2.181506395E0,9.657432556E0,-1.247707486E0,9.979065472E0
2.639212084E0,2.176870346E0,9.653543472E0,-1.256979704E0,9.975453075E0
2.641771511E0,2.179113626E0,9.653992653E0,-1.258774281E0,9.976603782E0
2.644330834E0,2.183600187E0,9.652048111E0,-1.257876992E0,9.975590060E0
2.646889792E0,2.185245275E0,9.652945518E0,-1.259372473E0,9.977007223E0
2.649448490E0,2.184497595E0,9.649057388E0,-1.260568857E0,9.973232779E0
2.652007032E0,2.186292171E0,9.652945518E0,-1.264008522E0,9.977822818E0
2.654565678E0,2.187937260E0,9.651749611E0,-1.266700506E0,9.977367898E0
2.657124740E0,2.180160522E0,9.641429901E0,-1.273579836E0,9.966557883E0
2.659684011E0,2.179562330E0,9.636196136E0,-1.273430347E0,9.961344928E0
2.662243334E0,2.179263115E0,9.631709099E0,-1.277916789E0,9.957513706E0
2.664802553E0,2.176720858E0,9.625577927E0,-1.279262781E0,9.951199796E0
2.667361459E0,2.174477577E0,9.620343208E0,-1.275524020E0,9.945165544E0
2.669920365E0,2.170439720E0,9.615857124E0,-1.272233844E0,9.939521908E0
2.672479636E0,2.171636105E0,9.614510536E0,-1.269242883E0,9.938098094E0
2.675039219E0,2.163560390E0,9.608678818E0,-1.273430347E0,9.931229885E0
2.677598907E0,2.165055752E0,9.610024452E0,-1.270738363E0,9.932512893E0
2.680158542E0,2.164158583E0,9.608827591E0,-1.270887971E0,9.931178494E0
2.682718073E0,2.161017895E0,9.610323906E0,-1.273131251E0,9.932229715E0
2.685277709E0,2.158475637E0,9.611819267E0,-1.272532940E0,9.933047206E0
2.687837709E0,2.158774614E0,9.613164902E0,-1.267149091E0,9.933726093E0
2.690397709E0,2.161466599E0,9.609724998E0,-1.264756322E0,9.930677769E0
2.692957240E0,2.156980038E0,9.607033730E0,-1.269541979E0,9.927708537E0
2.695516563E0,2.161765814E0,9.610921860E0,-1.265055418E0,9.931939168E0
2.698075886E0,2.165953159E0,9.614361763E0,-1.261017561E0,9.935666585E0
2.700635521E0,2.169841528E0,9.617502213E0,-1.259671569E0,9.939382955E0
2.703195469E0,2.173430681E0,9.622885704E0,-1.258475184E0,9.945224482E0
2.705755313E0,2.178964138E0,9.625278473E0,-1.252493143E0,9.947995249E0
2.708315365E0,2.183899403E0,9.632308006E0,-1.249502063E0,9.955502475E0
2.710875573E0,2.179113626E0,9.629166603E0,-1.253689528E0,9.951940670E0
2.713435782E0,2.181057930E0,9.632606506E0,-1.251296639E0,9.955393768E0
2.715995938E0,2.185245275E0,9.635746956E0,-1.244118214E0,9.958451006E0
2.718556094E0,2.189133644E0,9.638738632E0,-1.240229845E0,9.961714642E0
2.721116198E0,2.192573309E0,9.641429901E0,-1.236640692E0,9.964628867E0
2.723676042E0,2.195863485E0,9.643822670E0,-1.235743403E0,9.967557068E0
2.726235886E0,2.198704958E0,9.641429901E0,-1.230060339E0,9.965165451E0
2.728795626E0,2.194367886E0,9.634700775E0,-1.236790180E0,9.958531990E0
2.731355469E0,2.199153662E0,9.635149002E0,-1.231555939E0,9.959372628E0
2.733915521E0,2.201247215E0,9.635597229E0,-1.229312658E0,9.959991610E0
2.736475417E0,2.203041792E0,9.636196136E0,-1.229611754E0,9.961004677E0
2.739035209E0,2.207229376E0,9.636794090E0,-1.232154131E0,9.962824181E0
2.741595105E0,2.210968018E0,9.639784813E0,-1.234247804E0,9.966804827E0
2.744155209E0,2.214407921E0,9.640233994E0,-1.231107235E0,9.967614505E0
2.746715261E0,2.212912321E0,9.631260872E0,-1.232901812E0,9.958825925E0
2.749275157E0,2.215454578E0,9.629765511E0,-1.225723386E0,9.957058833E0
2.751834896E0,2.215305090E0,9.630811691E0,-1.221835017E0,9.957559504E0
2.754394688E0,2.217847586E0,9.629615784E0,-1.220638633E0,9.956822120E0
2.756954584E0,2.220090866E0,9.626175880E0,-1.217198968E0,9.953574175E0
2.759514271E0,2.222184420E0,9.625876427E0,-1.213908792E0,9.953349945E0
2.762073959E0,2.221885443E0,9.627970695E0,-1.213310599E0,9.955235670E0
2.764633803E0,2.212164640E0,9.620492935E0,-1.224527001E0,9.947211825E0
2.767193698E0,2.214856386E0,9.620343208E0,-1.230509043E0,9.948404131E0
2.769753542E0,2.212463617E0,9.622735977E0,-1.233051419E0,9.950500427E0
2.772313334E0,2.210519552E0,9.622437477E0,-1.237687469E0,9.950355268E0
2.774873126E0,2.204088688E0,9.627223015E0,-1.239183068E0,9.953743246E0
2.777433021E0,2.198704958E0,9.629017830E0,-1.240379453E0,9.954437656E0
2.779992865E0,2.194068909E0,9.630811691E0,-1.238883972E0,9.954963873E0
2.782552501E0,2.185544491E0,9.625428200E0,-1.246959686E0,9.948888441E0
2.785112448E0,2.181955099E0,9.624530792E0,-1.247707486E0,9.947326022E0
2.787672605E0,2.181207418E0,9.623932838E0,-1.245763302E0,9.946339793E0
2.790232501E0,2.180758715E0,9.626026154E0,-1.243968725E0,9.948042334E0
2.792792501E0,2.178216457E0,9.630213737E0,-1.242323637E0,9.951332151E0
2.795352448E0,2.180758715E0,9.634101868E0,-1.243071318E0,9.955744757E0
2.797911980E0,2.185544491E0,9.637541771E0,-1.243669510E0,9.960197285E0
2.800471303E0,2.180459738E0,9.638588905E0,-1.255932808E0,9.961634804E0
2.803030782E0,2.179861546E0,9.645617485E0,-1.257876992E0,9.968549922E0
2.805590469E0,2.184198380E0,9.654440880E0,-1.261914849E0,9.978546004E0
2.808150313E0,2.185843468E0,9.667003632E0,-1.265354514E0,9.991496030E0
2.810710157E0,2.187339067E0,9.675677299E0,-1.265803218E0,1.000027206E1
2.813270001E0,2.188834429E0,9.678668022E0,-1.263709426E0,1.000322810E1
2.815829896E0,2.190180540E0,9.678967476E0,-1.259222865E0,1.000324669E1
2.818389740E0,2.186890364E0,9.672387123E0,-1.259970665E0,9.996253708E0
2.820949428E0,2.190330029E0,9.670443535E0,-1.251894951E0,9.994111504E0
2.823509011E0,2.193320990E0,9.668947220E0,-1.247109294E0,9.992721296E0
2.826068646E0,2.198555470E0,9.662965775E0,-1.240379453E0,9.987246613E0
2.828628542E0,2.200948238E0,9.660123825E0,-1.236790180E0,9.984578880E0
2.831188542E0,2.200649023E0,9.653095245E0,-1.235892892E0,9.977601675E0
2.833748178E0,2.202892303E0,9.644720078E0,-1.234995604E0,9.969883350E0
2.836307553E0,2.195713997E0,9.627970695E0,-1.240977645E0,9.952839051E0
2.838866928E0,2.193171501E0,9.619745255E0,-1.240080357E0,9.944209334E0
2.841426146E0,2.195863485E0,9.614959717E0,-1.236790180E0,9.939764421E0
2.843985261E0,2.198405743E0,9.613314629E0,-1.233799219E0,9.938363370E0
2.846544688E0,2.198405743E0,9.611968994E0,-1.233350515E0,9.937006050E0
2.849104532E0,2.196012974E0,9.610921860E0,-1.235294700E0,9.935705560E0
2.851664271E0,2.191675901E0,9.610174179E0,-1.232004523E0,9.933615966E0
2.854223751E0,2.183450699E0,9.602546692E0,-1.238435268E0,9.925224523E0
2.856783386E0,2.180160522E0,9.599854469E0,-1.240229845E0,9.922120530E0
2.859343230E0,2.174926281E0,9.599854469E0,-1.239332557E0,9.920859607E0
2.861903073E0,2.170439720E0,9.597761154E0,-1.238285661E0,9.917720460E0
2.864463126E0,2.166700840E0,9.600751877E0,-1.234995604E0,9.919387243E0
2.867023073E0,2.163560390E0,9.605836868E0,-1.229462147E0,9.922936696E0
2.869582917E0,2.163261175E0,9.610472679E0,-1.224676490E0,9.926767678E0
2.872142501E0,2.153839588E0,9.607781410E0,-1.229611754E0,9.922723097E0
2.874701876E0,2.151745796E0,9.611519814E0,-1.230060339E0,9.925944365E0
2.877261407E0,2.152493477E0,9.612566948E0,-1.230359435E0,9.927157490E0
2.879821042E0,2.148455620E0,9.618399620E0,-1.235294700E0,9.932543773E0
2.882380573E0,2.147408724E0,9.623633385E0,-1.237238884E0,9.937627675E0
2.884939896E0,2.146661043E0,9.630662918E0,-1.238584876E0,9.944441381E0
2.887499011E0,2.150998116E0,9.634551048E0,-1.237388372E0,9.948994762E0
2.890058178E0,2.147857428E0,9.631111145E0,-1.243220925E0,9.945712226E0
2.892617501E0,2.156082869E0,9.629615784E0,-1.246810198E0,9.946493309E0
2.895176980E0,2.163410664E0,9.628418922E0,-1.252194047E0,9.947602052E0
2.897736615E0,2.169991016E0,9.624979973E0,-1.256830096E0,9.946291891E0
2.900296459E0,2.173430681E0,9.624680519E0,-1.255932808E0,9.946639796E0
2.902856511E0,2.174328089E0,9.624381065E0,-1.255035520E0,9.946432913E0
2.905416459E0,2.175075769E0,9.629166603E0,-1.256531000E0,9.951415690E0
2.907976251E0,2.168944120E0,9.621540070E0,-1.262213945E0,9.943416714E0
2.910536094E0,2.169692039E0,9.621240616E0,-1.261167049E0,9.943157288E0
2.913095886E0,2.168196440E0,9.623483658E0,-1.257577896E0,9.944547032E0
2.915655521E0,2.169392824E0,9.623185158E0,-1.254287720E0,9.944103554E0
2.918215365E0,2.170589209E0,9.625428200E0,-1.251296639E0,9.946158496E0
2.920775261E0,2.171785593E0,9.627372742E0,-1.248604774E0,9.947963231E0
2.923335417E0,2.172832489E0,9.626923561E0,-1.246062398E0,9.947438352E0
2.925895573E0,2.167000055E0,9.619745255E0,-1.250848055E0,9.939819357E0
2.928455157E0,2.172832489E0,9.619595528E0,-1.248604774E0,9.940665623E0
2.931014428E0,2.178066730E0,9.619595528E0,-1.244267821E0,9.941267284E0
2.933573490E0,2.180459738E0,9.619745255E0,-1.247408390E0,9.942330266E0
2.936132292E0,2.177917242E0,9.622437477E0,-1.245314598E0,9.944115595E0
2.938691198E0,2.175673962E0,9.622437477E0,-1.248156071E0,9.943980781E0
2.941250157E0,2.173879385E0,9.617800713E0,-1.252941728E0,9.939703471E0
2.943808855E0,2.165504456E0,9.611669540E0,-1.259222865E0,9.932735934E0
2.946367709E0,2.166850567E0,9.612566948E0,-1.258325577E0,9.933784171E0
2.948926771E0,2.168046951E0,9.615857124E0,-1.255185008E0,9.936831750E0
2.951485730E0,2.169243336E0,9.611669540E0,-1.249801159E0,9.932361801E0
2.954044480E0,2.168046951E0,9.605836868E0,-1.249801159E0,9.926456188E0
2.956603282E0,2.169542313E0,9.605537415E0,-1.252044439E0,9.926775818E0
2.959162396E0,2.175673962E0,9.602995872E0,-1.256381392E0,9.926206784E0
2.961721511E0,2.174178362E0,9.596415520E0,-1.262064338E0,9.920234310E0
2.964280521E0,2.179263115E0,9.594321251E0,-1.263410330E0,9.919495635E0
2.966839428E0,2.178964138E0,9.590433121E0,-1.261914849E0,9.915478871E0
2.969398438E0,2.178814650E0,9.586993217E0,-1.255783200E0,9.911340155E0
2.971957813E0,2.178814650E0,9.586544991E0,-1.252642632E0,9.910509154E0
2.974517344E0,2.178814650E0,9.586245537E0,-1.249651670E0,9.909841879E0
2.977076771E0,2.174328089E0,9.586245537E0,-1.244716406E0,9.908235214E0
2.979636198E0,2.161017895E0,9.581609726E0,-1.247109294E0,9.901137554E0
2.982195678E0,2.158026934E0,9.583852768E0,-1.243071318E0,9.902148273E0
2.984755001E0,2.155634165E0,9.588339806E0,-1.244118214E0,9.906101605E0
2.987314271E0,2.151147604E0,9.592377663E0,-1.247408390E0,9.909448669E0
2.989873490E0,2.152194500E0,9.596116066E0,-1.252493143E0,9.913935838E0
2.992432813E0,2.153241158E0,9.597013474E0,-1.256830096E0,9.915580517E0
2.994992501E0,2.154288054E0,9.600453377E0,-1.258026481E0,9.919288920E0
2.997552344E0,2.145913363E0,9.594022751E0,-1.263709426E0,9.911971460E0
3.000111928E0,2.147259235E0,9.592377663E0,-1.259970665E0,9.910194626E0
3.002671303E0,2.150998116E0,9.591031075E0,-1.256531000E0,9.909265367E0
3.005230626E0,2.156681061E0,9.594770432E0,-1.253390431E0,9.913721824E0
3.007790053E0,2.164308071E0,9.595667839E0,-1.248156071E0,9.915591978E0
3.010349271E0,2.168645144E0,9.596714020E0,-1.245763302E0,9.917251027E0
3.012908334E0,2.170140505E0,9.597761154E0,-1.246062398E0,9.918628962E0
3.015467709E0,2.162214279E0,9.594171524E0,-1.253091335E0,9.914309644E0
3.018027240E0,2.161466599E0,9.597163200E0,-1.255484104E0,9.917344387E0
3.020586563E0,2.161017895E0,9.604789734E0,-1.257428288E0,9.924873303E0
3.023145886E0,2.165504456E0,9.614062309E0,-1.256531000E0,9.934710554E0
3.025705573E0,2.164756775E0,9.622138023E0,-1.255783200E0,9.942268528E0
3.028265417E0,2.164158583E0,9.627073288E0,-1.252493143E0,9.946499964E0
3.030824948E0,2.163859367E0,9.629017830E0,-1.251894951E0,9.948241689E0
3.033384376E0,2.154288054E0,9.626325607E0,-1.260718465E0,9.944672582E0
3.035943959E0,2.152194500E0,9.632456779E0,-1.259671569E0,9.950021972E0
3.038503594E0,2.155334949E0,9.635746956E0,-1.258624673E0,9.953754277E0
3.041063021E0,2.158026934E0,9.636196136E0,-1.257727385E0,9.954658929E0
3.043622396E0,2.158325911E0,9.636794090E0,-1.256680489E0,9.955170361E0
3.046181771E0,2.158475637E0,9.637541771E0,-1.255783200E0,9.955813373E0
3.048741407E0,2.158924341E0,9.640532494E0,-1.254736423E0,9.958673836E0
3.051300990E0,2.154736757E0,9.636345863E0,-1.260718465E0,9.954469506E0
3.053860417E0,2.155035973E0,9.636644363E0,-1.254885912E0,9.954086261E0
3.056420209E0,2.157727718E0,9.632158279E0,-1.252194047E0,9.949987536E0
3.058980105E0,2.162662983E0,9.628269196E0,-1.244866014E0,9.946374730E0
3.061539636E0,2.169392824E0,9.627521515E0,-1.240678549E0,9.946593337E0
3.064099011E0,2.173131704E0,9.629316330E0,-1.239183068E0,9.948960200E0
3.066658334E0,2.176421642E0,9.630961418E0,-1.235593796E0,9.950825143E0
3.069217709E0,2.172533512E0,9.625577927E0,-1.236790180E0,9.944913385E0
3.071777396E0,2.172832489E0,9.629615784E0,-1.231555939E0,9.948237593E0
3.074337292E0,2.171037912E0,9.633055687E0,-1.226919770E0,9.950602977E0
3.076897188E0,2.169392824E0,9.636345863E0,-1.225125194E0,9.953208456E0
3.079457032E0,2.170589209E0,9.636943817E0,-1.225872993E0,9.954140256E0
3.082016823E0,2.171785593E0,9.637541771E0,-1.223928809E0,9.954740869E0
3.084576459E0,2.170439720E0,9.635896683E0,-1.224527001E0,9.952928204E0
3.087135886E0,2.160120726E0,9.627521515E0,-1.231855035E0,9.943478209E0
3.089695261E0,2.154886246E0,9.628718376E0,-1.232154131E0,9.943538410E0
3.092254428E0,2.145614147E0,9.630064011E0,-1.232154131E0,9.942836452E0
3.094813803E0,2.140080690E0,9.633653641E0,-1.229761243E0,9.944824812E0
3.097373594E0,2.135295153E0,9.632158279E0,-1.229761243E0,9.942347370E0
3.099933386E0,2.133650064E0,9.630961418E0,-1.232154131E0,9.941130934E0
3.102493438E0,2.134696960E0,9.630064011E0,-1.229312658E0,9.940134485E0
3.105053490E0,2.131257296E0,9.622437477E0,-1.233799219E0,9.932563676E0
3.107613178E0,2.134397745E0,9.624381065E0,-1.231256843E0,9.934805385E0
3.110172657E0,2.134846449E0,9.623783112E0,-1.231555939E0,9.934359605E0
3.112732240E0,2.135444641E0,9.621090889E0,-1.231555939E0,9.931880171E0
3.115292032E0,2.133650064E0,9.618698120E0,-1.231406331E0,9.929157954E0
3.117851667E0,2.132304192E0,9.614510536E0,-1.228714466E0,9.924478488E0
3.120411303E0,2.131107569E0,9.610921860E0,-1.228714466E0,9.920744816E0
3.122971251E0,2.125723839E0,9.600751877E0,-1.237986565E0,9.910890433E0
3.125531251E0,2.127069712E0,9.600603104E0,-1.237388372E0,9.910960372E0
3.128090938E0,2.128565311E0,9.600603104E0,-1.234397411E0,9.910908496E0
3.130650938E0,2.129911184E0,9.600751877E0,-1.234098315E0,9.911304501E0
3.133211355E0,2.131257296E0,9.601051331E0,-1.231256843E0,9.911530544E0
3.135771563E0,2.134846449E0,9.603743553E0,-1.226321578E0,9.914298977E0
3.138331928E0,2.135893345E0,9.606286049E0,-1.221835017E0,9.916433474E0
3.140892448E0,2.127368927E0,9.601649284E0,-1.222283721E0,9.910163723E0
3.143453021E0,2.128565311E0,9.606136322E0,-1.218993545E0,9.914362843E0
3.146013542E0,2.132304192E0,9.607781410E0,-1.213460207E0,9.916081407E0
3.148573907E0,2.130808592E0,9.607033730E0,-1.208524942E0,9.914432655E0
3.151134219E0,2.129612207E0,9.604191780E0,-1.204187989E0,9.910893835E0
3.153694271E0,2.128714800E0,9.606434822E0,-1.202542901E0,9.912675023E0
3.156254167E0,2.130359888E0,9.608678818E0,-1.203440189E0,9.915311905E0
3.158814323E0,2.124976158E0,9.603593826E0,-1.211067319E0,9.910157522E0
3.161374532E0,2.129014015E0,9.605537415E0,-1.211516023E0,9.912962260E0
3.163934480E0,2.134995937E0,9.609724998E0,-1.206879973E0,9.917740744E0
3.166493959E0,2.142623186E0,9.615857124E0,-1.205234885E0,9.925126371E0
3.169053438E0,2.151895285E0,9.623783112E0,-1.203589797E0,9.934610364E0
3.171613178E0,2.155484438E0,9.628418922E0,-1.202094316E0,9.939697926E0
3.174172969E0,2.161017895E0,9.632756233E0,-1.202991605E0,9.945208886E0
3.176732917E0,2.156531334E0,9.629466057E0,-1.210618734E0,9.941973730E0
3.179292865E0,2.161317110E0,9.632905960E0,-1.208824039E0,9.946126102E0
3.181852448E0,2.165653944E0,9.638439178E0,-1.209422350E0,9.952500652E0
3.184411667E0,2.169542313E0,9.638738632E0,-1.212114215E0,9.953964895E0
3.186970886E0,2.170738697E0,9.636494637E0,-1.209721446E0,9.951761721E0
3.189530209E0,2.174178362E0,9.637242317E0,-1.207328558E0,9.952945960E0
3.192089532E0,2.177468538E0,9.640383720E0,-1.205234885E0,9.956453115E0
3.194648855E0,2.175823450E0,9.636196136E0,-1.207777262E0,9.952346938E0
3.197208438E0,2.183001995E0,9.638887405E0,-1.203888893E0,9.956053264E0
3.199768282E0,2.184497595E0,9.641280174E0,-1.197906852E0,9.957976399E0
3.202327917E0,2.188535452E0,9.641131401E0,-1.197308660E0,9.958647004E0
3.204887032E0,2.189731836E0,9.643524170E0,-1.191924810E0,9.960580740E0
3.207446355E0,2.193171501E0,9.643224716E0,-1.186989546E0,9.960458240E0
3.210006094E0,2.194068909E0,9.643224716E0,-1.187438250E0,9.960709357E0
3.212565521E0,2.187937260E0,9.636345863E0,-1.197009563E0,9.953846641E0
3.215124792E0,2.191227436E0,9.634101868E0,-1.199252844E0,9.952668178E0
3.217684323E0,2.189432621E0,9.637093544E0,-1.193868995E0,9.954522106E0
3.220243803E0,2.187937260E0,9.635149002E0,-1.186540961E0,9.951434329E0
3.222803334E0,2.184347868E0,9.633503914E0,-1.177717447E0,9.948004406E0
3.225363126E0,2.181356907E0,9.634551048E0,-1.169791222E0,9.947426972E0
3.227922709E0,2.183749676E0,9.633204460E0,-1.167697430E0,9.946401767E0
3.230482136E0,2.176421642E0,9.629914284E0,-1.177268744E0,9.942737147E0
3.233041459E0,2.176421642E0,9.633354187E0,-1.179512024E0,9.946334635E0
3.235600365E0,2.176421642E0,9.638738632E0,-1.183848977E0,9.952064710E0
3.238159376E0,2.174178362E0,9.641280174E0,-1.187438250E0,9.954463549E0
3.240718698E0,2.172383785E0,9.641280174E0,-1.188036442E0,9.954143122E0
3.243277917E0,2.173281193E0,9.641429901E0,-1.188485146E0,9.954537590E0
3.245837188E0,2.174178362E0,9.639186859E0,-1.188634634E0,9.952578919E0
3.248396355E0,2.170589209E0,9.632756233E0,-1.193420291E0,9.946140063E0
3.250955313E0,2.173580170E0,9.631111145E0,-1.193569899E0,9.945218034E0
3.253514376E0,2.176421642E0,9.634401321E0,-1.193719387E0,9.949043470E0
3.256073542E0,2.181356907E0,9.635149002E0,-1.195962667E0,9.951117573E0
3.258632865E0,2.185843468E0,9.638289452E0,-1.195513964E0,9.955088591E0
3.261192396E0,2.185095787E0,9.638738632E0,-1.195065379E0,9.955305484E0
3.263752084E0,2.186890364E0,9.641579628E0,-1.196859956E0,9.958665620E0
3.266311771E0,2.179263115E0,9.637392044E0,-1.207627654E0,9.954239182E0
3.268871303E0,2.176421642E0,9.637392044E0,-1.208524942E0,9.953726393E0
3.271430417E0,2.174028873E0,9.639934540E0,-1.213908792E0,9.956320306E0
3.273989323E0,2.174477577E0,9.639934540E0,-1.213759303E0,9.956400068E0
3.276548073E0,2.175075769E0,9.640084267E0,-1.213460207E0,9.956639239E0
3.279107136E0,2.175673962E0,9.642776489E0,-1.208375454E0,9.958758298E0
3.281666615E0,2.178664923E0,9.640383720E0,-1.206132174E0,9.956823487E0
3.284226251E0,2.174477577E0,9.631410599E0,-1.210917830E0,9.947801006E0
3.286785782E0,2.174627066E0,9.632308006E0,-1.208973646E0,9.948466097E0
3.289344896E0,2.179711819E0,9.633055687E0,-1.209571838E0,9.950375345E0
3.291903751E0,2.184198380E0,9.633953094E0,-1.207478166E0,9.951973589E0
3.294462709E0,2.190629244E0,9.632456779E0,-1.205683470E0,9.951721093E0
3.297021876E0,2.196461678E0,9.631260872E0,-1.203888893E0,9.951631944E0
3.299581094E0,2.196910381E0,9.632756233E0,-1.204487085E0,9.953250575E0
3.302140053E0,2.190479517E0,9.624680519E0,-1.209571838E0,9.944633711E0
3.304698907E0,2.188535452E0,9.621540070E0,-1.205384374E0,9.940657535E0
3.307257865E0,2.189432621E0,9.621390343E0,-1.201645613E0,9.940257517E0
3.309816928E0,2.190479517E0,9.618847847E0,-1.200598717E0,9.937900769E0
3.312375990E0,2.186591148E0,9.619297028E0,-1.201944709E0,9.937641935E0
3.314935001E0,2.183301210E0,9.622138023E0,-1.200598717E0,9.939506104E0
3.317494011E0,2.180609226E0,9.627073288E0,-1.201795220E0,9.943837712E0
3.320053126E0,2.171336889E0,9.624680519E0,-1.209571838E0,9.940434750E0
3.322612292E0,2.169542313E0,9.628718376E0,-1.210170031E0,9.944025489E0
3.325171459E0,2.170439720E0,9.634700775E0,-1.210618734E0,9.950068609E0
3.327730782E0,2.171336889E0,9.640233994E0,-1.213161111E0,9.955931660E0
3.330290469E0,2.169841528E0,9.637841225E0,-1.215404391E0,9.953562355E0
3.332850209E0,2.171037912E0,9.638439178E0,-1.217198968E0,9.954621477E0
3.335409740E0,2.169841528E0,9.634251595E0,-1.220937729E0,9.950764040E0
3.337969219E0,2.164308071E0,9.626026154E0,-1.226471186E0,9.942275419E0
3.340528646E0,2.163410664E0,9.622735977E0,-1.224975586E0,9.938710106E0
3.343087553E0,2.162662983E0,9.619894981E0,-1.225872993E0,9.935907368E0
3.345646355E0,2.164607286E0,9.612865448E0,-1.229013562E0,9.929913452E0
3.348205365E0,2.166252136E0,9.606884003E0,-1.231555939E0,9.924797156E0
3.350764688E0,2.170439720E0,9.601649284E0,-1.233799219E0,9.920924255E0
3.353324167E0,2.174028873E0,9.597163200E0,-1.233051419E0,9.917275777E0
3.355883490E0,2.170439720E0,9.586544991E0,-1.241874933E0,9.907315821E0
3.358442917E0,2.175823450E0,9.585797310E0,-1.240828037E0,9.907642099E0
3.361002344E0,2.178365946E0,9.587592125E0,-1.234995604E0,9.909208601E0
3.363561615E0,2.183151484E0,9.589385986E0,-1.234546900E0,9.911941285E0
3.366121146E0,2.189731836E0,9.593423843E0,-1.238883972E0,9.917839485E0
3.368680938E0,2.193320990E0,9.599555969E0,-1.244866014E0,9.925312245E0
3.371240782E0,2.201247215E0,9.607332230E0,-1.247707486E0,9.934943173E0
3.373800469E0,2.201396942E0,9.607332230E0,-1.256979704E0,9.936145080E0
3.376359792E0,2.203041792E0,9.613464355E0,-1.258774281E0,9.942665776E0
3.378919219E0,2.202144623E0,9.619147301E0,-1.265055418E0,9.948758764E0
3.381478855E0,2.199003935E0,9.628868103E0,-1.268046498E0,9.957844203E0
3.384038073E0,2.196461678E0,9.632756233E0,-1.272981644E0,9.961672491E0
3.386596928E0,2.194367886E0,9.636345863E0,-1.277169108E0,9.965218159E0
3.389155678E0,2.192722797E0,9.639486313E0,-1.280608773E0,9.968334288E0
3.391714688E0,2.184347868E0,9.630662918E0,-1.290628672E0,9.959255304E0
3.394273803E0,2.180908203E0,9.631559372E0,-1.290628672E0,9.959368398E0
3.396832865E0,2.175524473E0,9.630213737E0,-1.285843015E0,9.956270166E0
3.399392136E0,2.171037912E0,9.629017830E0,-1.278963685E0,9.953247615E0
3.401951407E0,2.169542313E0,9.628120422E0,-1.270588875E0,9.950980495E0
3.404510469E0,2.168495417E0,9.629765511E0,-1.267896891E0,9.952000738E0
3.407069584E0,2.172383785E0,9.631410599E0,-1.262961745E0,9.953813028E0
3.409628230E0,2.164158583E0,9.623633385E0,-1.260718465E0,9.944210021E0
3.412186719E0,2.163261175E0,9.625428200E0,-1.250249863E0,9.944430183E0
3.414745469E0,2.160120726E0,9.629466057E0,-1.238435268E0,9.946178161E0
3.417304167E0,2.159970999E0,9.630811691E0,-1.230359435E0,9.946446244E0
3.419863126E0,2.159821510E0,9.632158279E0,-1.223181009E0,9.946832353E0
3.422422396E0,2.159970999E0,9.630961418E0,-1.216899872E0,9.944935286E0
3.424981615E0,2.160120726E0,9.634849548E0,-1.211067319E0,9.948021483E0
3.427540782E0,2.153540373E0,9.626625061E0,-1.215404391E0,9.939157612E0
3.430100001E0,2.153839588E0,9.625577927E0,-1.215254784E0,9.938189955E0
3.432659480E0,2.156681061E0,9.624830246E0,-1.215105295E0,9.938063762E0
3.435218698E0,2.156980038E0,9.624381065E0,-1.212413311E0,9.937364832E0
3.437777657E0,2.159672022E0,9.621689796E0,-1.212263823E0,9.935324925E0
3.440337032E0,2.159821510E0,9.621838570E0,-1.214357495E0,9.935757170E0
3.442896667E0,2.162364006E0,9.619595528E0,-1.216152072E0,9.934357658E0
3.445456407E0,2.157877445E0,9.613314629E0,-1.224676490E0,9.928347583E0
3.448016146E0,2.157727718E0,9.614062309E0,-1.223330617E0,9.928873088E0
3.450575626E0,2.162364006E0,9.614660263E0,-1.222134113E0,9.930313281E0
3.453135105E0,2.169093609E0,9.615557671E0,-1.223330617E0,9.932796897E0
3.455694688E0,2.175075769E0,9.616305351E0,-1.221835017E0,9.934644635E0
3.458254376E0,2.178066730E0,9.619445801E0,-1.220339537E0,9.938155804E0
3.460813959E0,2.180758715E0,9.620044708E0,-1.218993545E0,9.939160630E0
3.463373282E0,2.176272154E0,9.611220360E0,-1.224676490E0,9.930334828E0
3.465932709E0,2.181057930E0,9.607332230E0,-1.223480105E0,9.927474494E0
3.468492240E0,2.182852507E0,9.611370087E0,-1.224527001E0,9.931905476E0
3.471051876E0,2.187039852E0,9.617352486E0,-1.225424290E0,9.938726117E0
3.473611615E0,2.190778732E0,9.627521515E0,-1.226172090E0,9.949481392E0
3.476171407E0,2.194218397E0,9.638887405E0,-1.226471186E0,9.961273832E0
3.478731407E0,2.194966078E0,9.646514893E0,-1.224377394E0,9.968561865E0
3.481291459E0,2.188684940E0,9.643972397E0,-1.231855035E0,9.965641584E0
3.483851355E0,2.191825628E0,9.650403023E0,-1.229611754E0,9.972277731E0
3.486411251E0,2.192274094E0,9.653842926E0,-1.222881913E0,9.974877900E0
3.488971042E0,2.190479517E0,9.656833649E0,-1.221535921E0,9.977213370E0
3.491530834E0,2.188984156E0,9.654890060E0,-1.215553880E0,9.974273154E0
3.494090938E0,2.190330029E0,9.650852203E0,-1.214806199E0,9.970569090E0
3.496651251E0,2.191526413E0,9.652197838E0,-1.214207888E0,9.972061568E0
3.499211303E0,2.185693979E0,9.644271851E0,-1.218096256E0,9.963583501E0
3.501771042E0,2.186740875E0,9.648309708E0,-1.215254784E0,9.967374783E0
3.504330782E0,2.187937260E0,9.647112846E0,-1.214955688E0,9.966442346E0
3.506890730E0,2.188984156E0,9.646215439E0,-1.209870934E0,9.965184976E0
3.509450417E0,2.192573309E0,9.647860527E0,-1.207777262E0,9.967312395E0
3.512010053E0,2.190928221E0,9.649655342E0,-1.205683470E0,9.968434547E0
3.514570001E0,2.192124605E0,9.648757935E0,-1.206132174E0,9.967883165E0
3.517130105E0,2.186142683E0,9.643524170E0,-1.211067319E0,9.962101299E0
3.519690001E0,2.184796572E0,9.647711754E0,-1.209123135E0,9.965623759E0
3.522250105E0,2.186292171E0,9.651300430E0,-1.209571838E0,9.969480302E0
3.524810469E0,2.187488556E0,9.654740334E0,-1.210020542E0,9.973127233E0
3.527370521E0,2.191227436E0,9.652945518E0,-1.212562919E0,9.972519425E0
3.529930261E0,2.194667101E0,9.651599884E0,-1.212263823E0,9.971937002E0
3.532490157E0,2.197658062E0,9.650552750E0,-1.211964726E0,9.971545910E0
3.535050209E0,2.195863485E0,9.642776489E0,-1.218544960E0,9.964427063E0
3.537609792E0,2.198106766E0,9.642177582E0,-1.217946768E0,9.964268975E0
3.540169376E0,2.200200319E0,9.641729355E0,-1.219890952E0,9.964535129E0
3.542729011E0,2.202144623E0,9.643972397E0,-1.216451168E0,9.966714503E0
3.545288803E0,2.206481695E0,9.645916939E0,-1.213460207E0,9.969190576E0
3.547848803E0,2.210220337E0,9.647860527E0,-1.213161111E0,9.971862743E0
3.550408542E0,2.216202497E0,9.647262573E0,-1.210319638E0,9.972266658E0
3.552968282E0,2.212014914E0,9.639784813E0,-1.217049360E0,9.964921995E0
3.555528178E0,2.217099667E0,9.639636040E0,-1.219143152E0,9.966163953E0
3.558087969E0,2.219193459E0,9.639486313E0,-1.218395352E0,9.966393692E0
3.560647605E0,2.221287251E0,9.639636040E0,-1.220040441E0,9.967206163E0
3.563207032E0,2.223081827E0,9.639784813E0,-1.216600776E0,9.967329707E0
3.565766198E0,2.222483635E0,9.637691498E0,-1.218245864E0,9.965372743E0
3.568325417E0,2.222034931E0,9.635896683E0,-1.221984625E0,9.963994708E0
3.570884740E0,2.214706898E0,9.625128746E0,-1.229611754E0,9.952887776E0
3.573444115E0,2.212314129E0,9.619595528E0,-1.230060339E0,9.947059885E0
3.576003907E0,2.210220337E0,9.614809990E0,-1.228116274E0,9.941725940E0
3.578563594E0,2.208575249E0,9.615557671E0,-1.226022482E0,9.941825037E0
3.581123073E0,2.209622145E0,9.618698120E0,-1.224227905E0,9.944873931E0
3.583682657E0,2.208276272E0,9.621689796E0,-1.224975586E0,9.947560697E0
3.586242240E0,2.207229376E0,9.621838570E0,-1.223031521E0,9.947233036E0
3.588801980E0,2.197059870E0,9.615258217E0,-1.230509043E0,9.939537975E0
3.591361928E0,2.194367886E0,9.613314629E0,-1.226172090E0,9.936526886E0
3.593921719E0,2.192124605E0,9.611669540E0,-1.222134113E0,9.933942492E0
3.596481303E0,2.190330029E0,9.615258217E0,-1.218544960E0,9.936578286E0
3.599041198E0,2.186441660E0,9.616006851E0,-1.217647672E0,9.936336385E0
3.601601042E0,2.183301210E0,9.616903305E0,-1.214357495E0,9.936110782E0
3.604160834E0,2.183001995E0,9.617800713E0,-1.213759303E0,9.936840539E0
3.606720521E0,2.175823450E0,9.611669540E0,-1.222582817E0,9.930413274E0
3.609279948E0,2.175823450E0,9.614959717E0,-1.228714466E0,9.934354397E0
3.611839428E0,2.178365946E0,9.620343208E0,-1.233948708E0,9.940770144E0
3.614399063E0,2.185394764E0,9.625128746E0,-1.236042500E0,9.947203361E0
3.616958751E0,2.191825628E0,9.627223015E0,-1.242622733E0,9.951463903E0
3.619518386E0,2.197508574E0,9.626625061E0,-1.245763302E0,9.952531346E0
3.622078282E0,2.197807550E0,9.621540070E0,-1.250848055E0,9.948317053E0
3.624638230E0,2.188684940E0,9.612566948E0,-1.259671569E0,9.938740240E0
3.627198021E0,2.189432621E0,9.613314629E0,-1.256381392E0,9.939211616E0
3.629757969E0,2.190330029E0,9.616455078E0,-1.253390431E0,9.942069275E0
3.632318021E0,2.191077709E0,9.617053032E0,-1.253091335E0,9.942774685E0
3.634878386E0,2.189582348E0,9.622437477E0,-1.250249863E0,9.947296044E0
3.637439011E0,2.190778732E0,9.624830246E0,-1.247707486E0,9.949554899E0
3.639999219E0,2.191825628E0,9.627073288E0,-1.245314598E0,9.951655547E0
3.642559167E0,2.185992956E0,9.622287750E0,-1.250100255E0,9.946342916E0
3.645119219E0,2.184647083E0,9.621838570E0,-1.248006582E0,9.945349706E0
3.647679428E0,2.183749676E0,9.623932838E0,-1.243669510E0,9.946635601E0
3.650239480E0,2.180609226E0,9.626026154E0,-1.239781260E0,9.947486802E0
3.652799636E0,2.180310011E0,9.630213737E0,-1.238734365E0,9.951343186E0
3.655359740E0,2.182703018E0,9.636494637E0,-1.237537980E0,9.957797025E0
3.657919740E0,2.184796572E0,9.639636040E0,-1.241276741E0,9.961761239E0
3.660479948E0,2.179861546E0,9.630811691E0,-1.253689528E0,9.953696179E0
3.663040417E0,2.186441660E0,9.631709099E0,-1.255932808E0,9.956290198E0
3.665600626E0,2.187638044E0,9.632606506E0,-1.253091335E0,9.957063132E0
3.668160730E0,2.186441660E0,9.628718376E0,-1.250399351E0,9.952700299E0
3.670720834E0,2.185394764E0,9.627820969E0,-1.245464206E0,9.950983266E0
3.673280886E0,2.187189341E0,9.627223015E0,-1.243520021E0,9.950555876E0
3.675840990E0,2.191077709E0,9.629166603E0,-1.241725445E0,9.953067521E0
3.678401146E0,2.192573309E0,9.624082565E0,-1.254138112E0,9.950035444E0
3.680961355E0,2.197658062E0,9.620942116E0,-1.253988624E0,9.948101106E0
3.683521615E0,2.199751854E0,9.620792389E0,-1.256082296E0,9.948683186E0
3.686082136E0,2.194667101E0,9.623185158E0,-1.257727385E0,9.950082132E0
3.688642657E0,2.192573309E0,9.625428200E0,-1.259222865E0,9.951979098E0
3.691202865E0,2.191077709E0,9.627521515E0,-1.260269761E0,9.953806906E0
3.693762917E0,2.192124605E0,9.629466057E0,-1.265952706E0,9.956639146E0
3.696322917E0,2.183899403E0,9.626625061E0,-1.275224924E0,9.953267065E0
3.698883178E0,2.182852507E0,9.630513191E0,-1.277318597E0,9.957066445E0
3.701443542E0,2.182104588E0,9.629166603E0,-1.276421309E0,9.955484984E0
3.704003803E0,2.183899403E0,9.625727654E0,-1.278066397E0,9.952763595E0
3.706564219E0,2.183301210E0,9.620492935E0,-1.276870012E0,9.947416022E0
3.709124636E0,2.182852507E0,9.613614082E0,-1.271037459E0,9.939917354E0
3.711684584E0,2.180160522E0,9.605238914E0,-1.268046498E0,9.930843692E0
3.714244376E0,2.170888424E0,9.591180801E0,-1.274776220E0,9.916075843E0
3.716804063E0,2.169093609E0,9.585049629E0,-1.272084355E0,9.909406747E0
3.719363959E0,2.172533512E0,9.584600449E0,-1.271934748E0,9.909706637E0
3.721924011E0,2.173131704E0,9.581909180E0,-1.266849995E0,9.906583359E0
3.724484167E0,2.173879385E0,9.579665184E0,-1.264756322E0,9.904309424E0
3.727044167E0,2.174627066E0,9.580264091E0,-1.258026481E0,9.904195756E0
3.729604011E0,2.177767754E0,9.583404541E0,-1.251894951E0,9.907146711E0
3.732164167E0,2.171187401E0,9.576824188E0,-1.255932808E0,9.899847649E0
3.734723959E0,2.169392824E0,9.579665184E0,-1.250698447E0,9.901540126E0
3.737283646E0,2.167897224E0,9.582207680E0,-1.241276741E0,9.902487079E0
3.739843646E0,2.169093609E0,9.587142944E0,-1.237687469E0,9.907075612E0
3.742403490E0,2.172683001E0,9.591480255E0,-1.232004523E0,9.911351071E0
3.744963230E0,2.175973177E0,9.595368385E0,-1.226919770E0,9.915204781E0
3.747523073E0,2.181356907E0,9.596564293E0,-1.217498064E0,9.916383702E0
3.750082605E0,2.179263115E0,9.592975616E0,-1.218544960E0,9.912578914E0
3.752642084E0,2.181207418E0,9.593873024E0,-1.218096256E0,9.913819844E0
3.755201980E0,2.180609226E0,9.594770432E0,-1.215105295E0,9.914189685E0
3.757761928E0,2.180310011E0,9.595518112E0,-1.210020542E0,9.914225603E0
3.760321719E0,2.180011034E0,9.596415520E0,-1.205384374E0,9.914463698E0
3.762881615E0,2.180011034E0,9.602098465E0,-1.201196909E0,9.919456490E0
3.765441771E0,2.172981977E0,9.607332230E0,-1.202243805E0,9.923108052E0
3.768001667E0,2.164607286E0,9.602396965E0,-1.207627654E0,9.917152652E0
3.770561407E0,2.163560390E0,9.602098465E0,-1.208524942E0,9.916744477E0
3.773121146E0,2.160419703E0,9.601948738E0,-1.209123135E0,9.915987677E0
3.775680834E0,2.160270214E0,9.601948738E0,-1.209571838E0,9.916009833E0
3.778240417E0,2.160120726E0,9.604341507E0,-1.209721446E0,9.918312523E0
3.780799740E0,2.162662983E0,9.609127045E0,-1.207478166E0,9.923227159E0
3.783358959E0,2.164906263E0,9.606136322E0,-1.205384374E0,9.920565793E0
3.785918386E0,2.164756775E0,9.603892326E0,-1.210319638E0,9.918961303E0
3.788477761E0,2.173281193E0,9.608079910E0,-1.210917830E0,9.924952025E0
3.791037136E0,2.178515434E0,9.614361763E0,-1.211216927E0,9.932216674E0
3.793596823E0,2.185544491E0,9.617502213E0,-1.213759303E0,9.937110504E0
3.796156511E0,2.191975117E0,9.620492935E0,-1.213460207E0,9.941384456E0
3.798715886E0,2.197658062E0,9.618399620E0,-1.213011503E0,9.940558793E0
3.801275417E0,2.197807550E0,9.616604805E0,-1.210170031E0,9.938508817E0
3.803835053E0,2.191227436E0,9.608229637E0,-1.214656591E0,9.929498732E0
3.806394896E0,2.191675901E0,9.604789734E0,-1.212263823E0,9.925976660E0
3.808955157E0,2.189881325E0,9.601948738E0,-1.212413311E0,9.922849683E0
3.811515626E0,2.188385963E0,9.597163200E0,-1.214806199E0,9.918181725E0
3.814076094E0,2.187189341E0,9.597761154E0,-1.211964726E0,9.918148763E0
3.816636459E0,2.186142683E0,9.598508835E0,-1.204636693E0,9.917748799E0
3.819196615E0,2.187937260E0,9.596863747E0,-1.198056340E0,9.915755252E0
3.821756511E0,2.184946060E0,9.588638306E0,-1.199103236E0,9.907261095E0
3.824316198E0,2.188535452E0,9.589984894E0,-1.198654652E0,9.909302229E0
3.826875521E0,2.191825628E0,9.593723297E0,-1.198056340E0,9.913574798E0
3.829434792E0,2.197209358E0,9.597163200E0,-1.195065379E0,9.917734203E0
3.831994532E0,2.202144623E0,9.597761154E0,-1.192373395E0,9.919083346E0
3.834554792E0,2.204088688E0,9.600901604E0,-1.187438250E0,9.921961910E0
3.837114636E0,2.206032991E0,9.606136322E0,-1.182951689E0,9.926923556E0
3.839674115E0,2.198405743E0,9.603892326E0,-1.188485146E0,9.923720702E0
3.842233490E0,2.195564270E0,9.608229637E0,-1.184447169E0,9.926806854E0
3.844792657E0,2.197957039E0,9.616754532E0,-1.180858016E0,9.935160216E0
3.847351719E0,2.200200319E0,9.624530792E0,-1.175324559E0,9.942527960E0
3.849910938E0,2.202294111E0,9.628868103E0,-1.172632694E0,9.946872259E0
3.852470469E0,2.206631184E0,9.635298729E0,-1.172632694E0,9.954057977E0
3.855030001E0,2.205883265E0,9.641131401E0,-1.169940710E0,9.959221703E0
3.857589480E0,2.200649023E0,9.636794090E0,-1.174576759E0,9.954410431E0
3.860148855E0,2.199901342E0,9.639336586E0,-1.172483087E0,9.956459829E0
3.862708073E0,2.201845407E0,9.639336586E0,-1.165603757E0,9.956081816E0
3.865267396E0,2.205883265E0,9.639486313E0,-1.161864996E0,9.956683565E0
3.867827032E0,2.209771633E0,9.637242317E0,-1.160818100E0,9.955251318E0
3.870386719E0,2.213211298E0,9.637841225E0,-1.162313581E0,9.956769586E0
3.872946407E0,2.216351986E0,9.636046410E0,-1.158574820E0,9.955295181E0
3.875506303E0,2.212164640E0,9.630064011E0,-1.162313581E0,9.949008901E0
3.878066251E0,2.212314129E0,9.633503914E0,-1.159173012E0,9.952005503E0
3.880626511E0,2.215155602E0,9.634101868E0,-1.158873916E0,9.953181496E0
3.883186563E0,2.215155602E0,9.637242317E0,-1.160668492E0,9.956430343E0
3.885746146E0,2.215454578E0,9.637691498E0,-1.159920812E0,9.956844514E0
3.888305469E0,2.213361025E0,9.638289452E0,-1.161416292E0,9.957132036E0
3.890864844E0,2.214108706E0,9.636494637E0,-1.162612677E0,9.955700602E0
3.893424376E0,2.207827568E0,9.632756233E0,-1.168146133E0,9.951334614E0
3.895984219E0,2.208575249E0,9.635746956E0,-1.173978567E0,9.955081602E0
3.898544115E0,2.211865425E0,9.638588905E0,-1.181306601E0,9.959429202E0
3.901103855E0,2.212314129E0,9.638738632E0,-1.189980626E0,9.960706306E0
3.903663594E0,2.210519552E0,9.634251595E0,-1.195065379E0,9.956574800E0
3.906223490E0,2.211416721E0,9.632905960E0,-1.197009563E0,9.955705552E0
3.908783646E0,2.212463617E0,9.634101868E0,-1.196112275E0,9.956987427E0
3.911343855E0,2.208724737E0,9.625876427E0,-1.199851036E0,9.948648373E0
3.913904219E0,2.209472656E0,9.622586250E0,-1.197009563E0,9.945288707E0
3.916464584E0,2.207678080E0,9.624680519E0,-1.196560860E0,9.946862595E0
3.919024532E0,2.211117744E0,9.626625061E0,-1.193868995E0,9.949184636E0
3.921584428E0,2.214258194E0,9.623633385E0,-1.193569899E0,9.946952698E0
3.924144271E0,2.219492435E0,9.621090889E0,-1.190877914E0,9.945336936E0
3.926704063E0,2.224278212E0,9.621390343E0,-1.188485146E0,9.946409535E0
3.929263646E0,2.221586227E0,9.619595528E0,-1.197906852E0,9.945202075E0
3.931823334E0,2.225325108E0,9.624381065E0,-1.197607756E0,9.950630486E0
3.934382969E0,2.228914261E0,9.628568649E0,-1.199551940E0,9.955717848E0
3.936942292E0,2.234447718E0,9.632456779E0,-1.201196909E0,9.960916335E0
3.939501615E0,2.239382982E0,9.633503914E0,-1.207328558E0,9.963778201E0
3.942061251E0,2.244019032E0,9.636943817E0,-1.210020542E0,9.968473166E0
3.944620990E0,2.248056889E0,9.632905960E0,-1.212413311E0,9.965770570E0
3.947180626E0,2.242373943E0,9.622437477E0,-1.218844056E0,9.955155686E0
3.949740209E0,2.243570328E0,9.617202759E0,-1.216002584E0,9.950018040E0
3.952300105E0,2.249552488E0,9.615109444E0,-1.213310599E0,9.949016968E0
3.954860053E0,2.257328987E0,9.615857124E0,-1.210768223E0,9.951190988E0
3.957420001E0,2.261815548E0,9.616604805E0,-1.206132174E0,9.952369184E0
3.959980105E0,2.268395901E0,9.617352486E0,-1.204187989E0,9.954353696E0
3.962539896E0,2.274228334E0,9.615857124E0,-1.204935789E0,9.954330365E0
3.965099480E0,2.265255213E0,9.605089188E0,-1.209870934E0,9.942479930E0
3.967659219E0,2.263610125E0,9.602098465E0,-1.208076358E0,9.938997646E0
3.970219063E0,2.262264252E0,9.599555969E0,-1.208824039E0,9.936325775E0
3.972778803E0,2.261366844E0,9.597312927E0,-1.209272742E0,9.934009059E0
3.975338490E0,2.260619164E0,9.598060608E0,-1.211964726E0,9.934889276E0
3.977898126E0,2.262413740E0,9.598808289E0,-1.214058399E0,9.936275675E0
3.980457657E0,2.261815548E0,9.597013474E0,-1.211216927E0,9.934058769E0
3.983017240E0,2.254338026E0,9.588788033E0,-1.217797160E0,9.925216662E0
3.985577032E0,2.254039049E0,9.582955360E0,-1.219741344E0,9.919752740E0
3.988136823E0,2.254039049E0,9.585198402E0,-1.223779202E0,9.922416842E0
3.990696615E0,2.251646042E0,9.587292671E0,-1.222433209E0,9.923730831E0
3.993256251E0,2.247309208E0,9.586694717E0,-1.220937729E0,9.921985851E0
3.995815730E0,2.241327047E0,9.586544991E0,-1.219741344E0,9.920340757E0
3.998375053E0,2.236092806E0,9.584002495E0,-1.216002584E0,9.916243096E0
4.000934219E0,2.222334146E0,9.574879646E0,-1.219741344E0,9.904789662E0
4.003493386E0,2.216501474E0,9.575627327E0,-1.214207888E0,9.903525548E0
4.006052813E0,2.211566210E0,9.576375008E0,-1.207029462E0,9.902267594E0
4.008612448E0,2.207229376E0,9.579515457E0,-1.202841997E0,9.903827885E0
4.011172084E0,2.206182480E0,9.587142944E0,-1.201496124E0,9.910809448E0
4.013731511E0,2.207528353E0,9.598808289E0,-1.202692509E0,9.922538549E0
4.016290990E0,2.209023952E0,9.609127045E0,-1.205833077E0,9.933234256E0
4.018850782E0,2.198555470E0,9.606434822E0,-1.215553880E0,9.929491799E0
4.021410365E0,2.198106766E0,9.608079910E0,-1.220190048E0,9.931552581E0
4.023969740E0,2.202593327E0,9.607033730E0,-1.224227905E0,9.932031434E0
4.026529219E0,2.206780672E0,9.606434822E0,-1.225125194E0,9.932492269E0
4.029088490E0,2.207977057E0,9.605986595E0,-1.221087337E0,9.931827396E0
4.031647865E0,2.209323168E0,9.608079910E0,-1.217348576E0,9.933692464E0
4.034207813E0,2.210519552E0,9.607631683E0,-1.211516023E0,9.932812005E0
4.036768021E0,2.207079887E0,9.602846146E0,-1.215703487E0,9.927929829E0
4.039328126E0,2.210369825E0,9.602396965E0,-1.213161111E0,9.927916303E0
4.041888021E0,2.210968018E0,9.604640961E0,-1.210917830E0,9.929946100E0
4.044447605E0,2.211566210E0,9.604191780E0,-1.211067319E0,9.929663081E0
4.047007084E0,2.212314129E0,9.604042053E0,-1.208674550E0,9.929393321E0
4.049566771E0,2.212912321E0,9.601649284E0,-1.206580877E0,9.926957607E0
4.052126355E0,2.213660002E0,9.601948738E0,-1.204487085E0,9.927159680E0
4.054685730E0,2.207528353E0,9.592975616E0,-1.209571838E0,9.917732938E0
4.057245157E0,2.208276272E0,9.596265793E0,-1.210170031E0,9.921154810E0
4.059804636E0,2.209173441E0,9.596863747E0,-1.213011503E0,9.922279878E0
4.062364271E0,2.212463617E0,9.599854469E0,-1.215404391E0,9.926198110E0
4.064923751E0,2.215454578E0,9.600153923E0,-1.214806199E0,9.927081567E0
4.067483073E0,2.218146563E0,9.607781410E0,-1.216750264E0,9.935296624E0
4.070042917E0,2.218296051E0,9.612117767E0,-1.213460207E0,9.939121240E0
4.072602605E0,2.213809490E0,9.604341507E0,-1.217348576E0,9.931075762E0
4.075161876E0,2.213809490E0,9.610921860E0,-1.217049360E0,9.937403111E0
4.077721355E0,2.213959217E0,9.619297028E0,-1.221386433E0,9.946068346E0
4.080280886E0,2.214258194E0,9.626625061E0,-1.224975586E0,9.953663376E0
4.082840469E0,2.214557409E0,9.630811691E0,-1.228116274E0,9.958165892E0
4.085400053E0,2.215006113E0,9.632158279E0,-1.235444188E0,9.960474263E0
4.087959532E0,2.215604305E0,9.633503914E0,-1.239482164E0,9.962410157E0
4.090519376E0,2.211566210E0,9.625428200E0,-1.247408390E0,9.954693407E0
4.093079428E0,2.211865425E0,9.627073288E0,-1.250399351E0,9.956725731E0
4.095639271E0,2.214557409E0,9.623783112E0,-1.250548959E0,9.954161873E0
4.098199271E0,2.217249393E0,9.620942116E0,-1.245763302E0,9.951414386E0
4.100759376E0,2.219492435E0,9.618698120E0,-1.241575837E0,9.949221616E0
4.103319271E0,2.221735716E0,9.619147301E0,-1.232901812E0,9.949077910E0
4.105879219E0,2.221436739E0,9.619745255E0,-1.222732425E0,9.948334259E0
4.108439428E0,2.209472656E0,9.611071587E0,-1.220788240E0,9.937041330E0
4.110999376E0,2.202892303E0,9.609575272E0,-1.215254784E0,9.933454363E0
4.113559271E0,2.199602127E0,9.606136322E0,-1.207777262E0,9.928485809E0
4.116119376E0,2.196910381E0,9.605537415E0,-1.201196909E0,9.926511888E0
4.118679636E0,2.194517374E0,9.605238914E0,-1.197757244E0,9.925278007E0
4.121239896E0,2.195115566E0,9.607332230E0,-1.194467187E0,9.927039679E0
4.123799844E0,2.195713997E0,9.607033730E0,-1.189232826E0,9.926254669E0
4.126359480E0,2.186890364E0,9.597461700E0,-1.196261764E0,9.915886383E0
4.128919480E0,2.183151484E0,9.595368385E0,-1.193719387E0,9.912729736E0
4.131479532E0,2.180011034E0,9.593573570E0,-1.188933730E0,9.909725797E0
4.134039115E0,2.179711819E0,9.594620705E0,-1.184746265E0,9.910172238E0
4.136598386E0,2.181955099E0,9.595667839E0,-1.180858016E0,9.911215616E0
4.139157709E0,2.184048891E0,9.598958015E0,-1.177418351E0,9.914453011E0
4.141717292E0,2.185992956E0,9.602098465E0,-1.179063320E0,9.918117283E0
4.144276980E0,2.178515434E0,9.593125343E0,-1.192074299E0,9.909340265E0
4.146836511E0,2.178216457E0,9.598808289E0,-1.197308660E0,9.915406977E0
4.149395834E0,2.177917242E0,9.601350784E0,-1.201645613E0,9.918327106E0
4.151955313E0,2.180310011E0,9.601499557E0,-1.200598717E0,9.918870035E0
4.154514844E0,2.184946060E0,9.601649284E0,-1.197159052E0,9.919619351E0
4.157074376E0,2.186740875E0,9.601799011E0,-1.194018483E0,9.919781250E0
4.159634063E0,2.190778732E0,9.602248192E0,-1.191177011E0,9.920765316E0
4.162193698E0,2.189731836E0,9.593275070E0,-1.195663571E0,9.912389392E0
4.164753230E0,2.192872286E0,9.591629982E0,-1.190728426E0,9.910897475E0
4.167312553E0,2.193171501E0,9.588040352E0,-1.186391354E0,9.906969439E0
4.169871928E0,2.193620205E0,9.584899902E0,-1.184895873E0,9.903850462E0
4.172431667E0,2.199003935E0,9.587142944E0,-1.185793161E0,9.907322220E0
4.174991615E0,2.203789711E0,9.589237213E0,-1.186540961E0,9.910501444E0
4.177551719E0,2.205584288E0,9.588788033E0,-1.184596777E0,9.910233474E0
4.180111876E0,2.202892303E0,9.581459999E0,-1.192223907E0,9.903459399E0
4.182672136E0,2.201845407E0,9.581310272E0,-1.192523003E0,9.903117733E0
4.185232188E0,2.205883265E0,9.581310272E0,-1.190429211E0,9.903764396E0
4.187791928E0,2.209622145E0,9.581459999E0,-1.193121195E0,9.905066578E0
4.190351771E0,2.210519552E0,9.579366684E0,-1.195513964E0,9.903530501E0
4.192911667E0,2.213809490E0,9.582357407E0,-1.202094316E0,9.907954212E0
4.195471355E0,2.219193459E0,9.589984894E0,-1.202991605E0,9.916643518E0
4.198030834E0,2.217099667E0,9.589685440E0,-1.205982566E0,9.916248873E0
4.200590313E0,2.221586227E0,9.600603104E0,-1.207029462E0,9.927937623E0
4.203149896E0,2.225474596E0,9.607781410E0,-1.205384374E0,9.935549924E0
4.205709740E0,2.231456757E0,9.616604805E0,-1.203888893E0,9.945241862E0
4.208270001E0,2.234447718E0,9.624381065E0,-1.200000525E0,9.952962813E0
4.210830053E0,2.237289190E0,9.629017830E0,-1.194168091E0,9.957383427E0
4.213390105E0,2.234896421E0,9.633055687E0,-1.188933730E0,9.960124864E0
4.215950209E0,2.226072788E0,9.629914284E0,-1.191177011E0,9.955378036E0
4.218509948E0,2.226970196E0,9.633354187E0,-1.186840057E0,9.958388347E0
4.221069688E0,2.225474596E0,9.638738632E0,-1.187886834E0,9.963387713E0
4.223629636E0,2.224278212E0,9.638887405E0,-1.188485146E0,9.963335833E0
4.226189584E0,2.223380804E0,9.641579628E0,-1.193719387E0,9.966365732E0
4.228749480E0,2.222782612E0,9.643972397E0,-1.193420291E0,9.968511329E0
4.231309115E0,2.224577188E0,9.648608208E0,-1.195513964E0,9.973647159E0
4.233868959E0,2.217099667E0,9.645916939E0,-1.206431270E0,9.970693102E0
4.236429219E0,2.219043970E0,9.647262573E0,-1.209870934E0,9.972844077E0
4.238989428E0,2.220988035E0,9.643822670E0,-1.215105295E0,9.970585962E0
4.241549271E0,2.222782612E0,9.640981674E0,-1.219591737E0,9.968785994E0
4.244109063E0,2.226820469E0,9.638588905E0,-1.220937729E0,9.967538032E0
4.246669167E0,2.225773811E0,9.639037132E0,-1.221984625E0,9.967865986E0
4.249229323E0,2.227269173E0,9.641879082E0,-1.220489144E0,9.970764963E0
4.251789271E0,2.219342947E0,9.637541771E0,-1.230808139E0,9.966071602E0
4.254349219E0,2.221137524E0,9.637541771E0,-1.231107235E0,9.966508331E0
4.256909063E0,2.225175619E0,9.632905960E0,-1.236042500E0,9.963537767E0
4.259468959E0,2.231157541E0,9.629017830E0,-1.235593796E0,9.961061207E0
4.262029011E0,2.236541510E0,9.625727654E0,-1.234845996E0,9.958995703E0
4.264589271E0,2.239083767E0,9.627820969E0,-1.231855035E0,9.961219782E0
4.267149428E0,2.238934278E0,9.629615784E0,-1.226620674E0,9.962275098E0
4.269709428E0,2.229512453E0,9.624530792E0,-1.231406331E0,9.955836494E0
4.272269219E0,2.227568388E0,9.623783112E0,-1.231705427E0,9.954715494E0
4.274828751E0,2.228465557E0,9.623334885E0,-1.229462147E0,9.954205654E0
4.277388438E0,2.231755733E0,9.623035431E0,-1.227218866E0,9.954376460E0
4.279948178E0,2.232204437E0,9.625278473E0,-1.225274801E0,9.956406012E0
4.282507865E0,2.235195398E0,9.624979973E0,-1.223480105E0,9.956567758E0
4.285067188E0,2.238036871E0,9.627223015E0,-1.226471186E0,9.959742144E0
4.287626355E0,2.228764772E0,9.619894981E0,-1.236042500E0,9.951762302E0
4.290185678E0,2.231755733E0,9.619745255E0,-1.242921829E0,9.953144583E0
4.292745313E0,2.234447718E0,9.619745255E0,-1.243968725E0,9.953879322E0
4.295305209E0,2.236840487E0,9.622287750E0,-1.244866014E0,9.956985904E0
4.297865209E0,2.239233255E0,9.627073288E0,-1.245464206E0,9.962222982E0
4.300425053E0,2.241327047E0,9.631260872E0,-1.248305678E0,9.967095865E0
4.302984792E0,2.241028070E0,9.632756233E0,-1.250548959E0,9.968754795E0
4.305544480E0,2.233700037E0,9.629466057E0,-1.259521961E0,9.965060359E0
4.308104219E0,2.233700037E0,9.630662918E0,-1.263410330E0,9.966709074E0
4.310664323E0,2.231307030E0,9.631709099E0,-1.266849995E0,9.967620585E0
4.313224376E0,2.229362965E0,9.634999275E0,-1.267149091E0,9.970403055E0
4.315784271E0,2.230260372E0,9.635746956E0,-1.272233844E0,9.971973710E0
4.318344271E0,2.233550310E0,9.636644363E0,-1.278814197E0,9.974418646E0
4.320904376E0,2.236541510E0,9.637392044E0,-1.282104254E0,9.976233490E0
4.323464480E0,2.229811668E0,9.631260872E0,-1.289581895E0,9.969767676E0
4.326024636E0,2.230260372E0,9.634401321E0,-1.287338614E0,9.972612038E0
4.328584740E0,2.228316069E0,9.637392044E0,-1.282852054E0,9.974488824E0
